order,ax,ay,az,gx,gy,gz
0,0.071289,-0.365234,0.995117,-0.671387,35.339355,-10.864258
1,0.062988,-0.330566,1.044434,-0.427246,37.170410,-11.718750
2,0.002441,-0.289062,1.099609,2.929688,29.724121,-8.300781
3,0.025391,-0.259277,1.115723,0.427246,16.540527,-9.216309
4,0.090820,-0.266113,1.029297,2.563477,13.183594,2.014160
5,0.052734,-0.420410,0.913086,9.033203,20.446777,-2.685547
6,0.054199,-0.410645,0.909668,13.183594,28.381348,-10.681152
7,0.069336,-0.354004,0.928711,13.366699,38.574219,-16.662598
8,0.045410,-0.308594,0.997559,7.202148,49.194336,-19.287109
9,-0.056641,-0.336914,1.140137,-20.141602,53.833008,-22.338867
10,-0.094727,-0.343262,1.197754,-30.822754,47.485352,-30.029297
11,-0.110352,-0.270508,1.324219,-49.804688,40.405273,-37.231445
12,-0.154297,-0.097168,1.322266,-100.952148,13.977051,-33.935547
13,-0.153320,-0.090332,1.285156,-94.665527,6.774902,-24.353027
14,-0.128418,-0.160156,1.216309,-111.450195,20.812988,-21.362305
15,-0.035645,-0.227539,1.041992,-57.678223,19.592285,0.000000
16,-0.009766,-0.496582,1.128906,-20.019531,4.699707,-2.136230
17,0.007812,-0.571289,1.112305,20.874023,-20.385742,-13.610840
18,-0.017090,-0.583008,1.104492,64.147949,-47.119141,-30.395508
19,-0.092285,-0.345703,1.060547,117.492676,-107.055664,-65.551758
20,-0.045898,-0.151367,1.027832,120.910645,-130.371094,-68.847656
21,-0.020996,0.010742,1.020996,110.107422,-145.385742,-57.556152
22,-0.065430,0.077637,0.925781,73.730469,-155.761719,-13.183594
23,-0.041504,0.013184,0.885742,48.339844,-158.996582,2.319336
24,0.013184,-0.079102,0.787598,21.911621,-159.667969,9.582520
25,0.222168,-0.270020,0.516602,-16.052246,-129.516602,11.291504
26,0.280273,-0.342773,0.434570,-27.587891,-95.520020,6.042480
27,0.274414,-0.382812,0.458496,-35.095215,-62.744141,-2.746582
28,0.225586,-0.404785,0.529297,-35.766602,-44.799805,-12.817383
29,0.145020,-0.445801,0.532227,-27.770996,-33.325195,-36.865234
30,0.153809,-0.433105,0.524414,-21.179199,-25.573730,-48.156738
31,0.171387,-0.393555,0.560547,-15.747070,-16.052246,-59.814453
32,0.196777,-0.333984,0.625488,-13.305664,-8.361816,-69.763184
33,0.224121,-0.287598,0.664551,-2.075195,1.953125,-75.439453
34,0.237305,-0.220215,0.689941,11.169434,2.624512,-76.721191
35,0.295898,-0.128418,0.701172,24.291992,1.708984,-73.730469
36,0.264160,-0.193359,0.798340,31.127930,1.159668,-68.664551
37,0.241699,-0.383301,0.995605,0.976562,8.728027,-78.552246
38,0.260254,-0.435547,1.054199,-9.765625,2.258301,-86.242676
39,0.223145,-0.411133,1.102539,-19.226074,-13.244629,-92.468262
40,0.193359,-0.315918,0.994141,-9.704590,-37.231445,-92.102051
41,0.363281,-0.164551,0.830566,14.831543,-43.151855,-69.030762
42,0.446777,-0.128418,0.841309,0.000000,-26.000977,-50.903320
43,0.482910,-0.149902,0.880371,-30.944824,-6.652832,-32.348633
44,0.531738,-0.346191,0.918945,-111.083984,33.752441,-8.850098
45,0.505371,-0.536621,0.846680,-129.638672,45.776367,-8.544922
46,0.422363,-0.710449,0.813965,-126.037598,55.664062,-24.658203
47,0.301270,-0.658691,0.981445,-81.420898,54.321289,-71.472168
48,0.302246,-0.544434,1.034668,-51.086426,43.029785,-88.562012
49,0.201660,-0.568359,1.284180,-34.667969,13.977051,-117.553711
50,0.230957,-0.464844,1.092285,27.954102,-27.221680,-173.889160
51,0.394043,-0.172852,1.111816,63.049316,-23.620605,-180.358887
52,0.636230,-0.046387,1.203613,50.231934,0.183105,-170.776367
53,0.750488,0.046875,1.128906,24.658203,36.804199,-141.601562
54,0.524414,0.113770,0.917480,12.878418,116.394043,-75.500488
55,0.412109,0.068848,1.146484,13.183594,137.573242,-56.030273
56,0.361816,0.035645,1.418457,9.094238,118.469238,-48.034668
57,0.328125,0.026367,1.411621,2.624512,81.604004,-26.062012
58,0.329590,-0.225586,1.395508,-17.272949,-0.732422,16.845703
59,0.344727,-0.271484,1.362793,-33.569336,-31.799316,14.526367
60,0.314453,-0.225098,1.114746,-64.025879,-28.930664,3.906250
61,0.265137,-0.207031,0.827148,-72.082520,-0.122070,-8.728027
62,0.236816,-0.092773,0.478027,-5.371094,75.439453,-39.062500
63,0.301758,0.096680,0.783691,20.080566,115.539551,-32.043457
64,0.300781,0.113770,0.860840,18.249512,141.906738,-19.287109
65,0.291992,0.032227,1.040039,-4.516602,140.686035,-13.488770
66,0.189941,-0.082520,0.983398,-6.774902,118.469238,-17.272949
67,0.161621,-0.122070,1.099121,-7.568359,88.745117,-25.390625
68,0.129395,-0.086426,1.457520,11.718750,-16.052246,-34.729004
69,0.070801,-0.022949,1.200684,5.126953,-67.810059,-26.672363
70,0.062012,-0.082520,1.079102,-0.610352,-96.496582,-19.897461
71,0.128906,-0.145508,0.879883,-3.295898,-104.248047,-21.118164
72,0.174805,-0.307617,0.479492,21.972656,-30.029297,-33.508301
73,0.145508,-0.372559,0.442383,51.635742,17.517090,-55.847168
74,0.244629,-0.114258,0.777832,76.904297,66.528320,-92.285156
75,0.261230,0.012207,0.864746,69.396973,65.429688,-84.411621
76,0.261230,0.088867,0.937500,56.274414,51.208496,-63.171387
77,0.095215,-0.060059,1.122070,4.760742,19.836426,-19.958496
78,0.011719,-0.153809,1.197266,-23.559570,0.000000,-22.888184
79,-0.045898,-0.206055,1.169434,-27.770996,-30.456543,-42.968750
80,-0.187012,-0.317871,0.971191,15.197754,-86.730957,-61.950684
81,-0.157227,-0.217285,0.845215,149.230957,-217.529297,-65.612793
82,-0.020996,-0.189941,0.691895,185.913086,-246.582031,-75.317383
83,0.789551,0.459961,1.026855,-38.635254,-66.101074,-21.118164
84,0.492188,0.210449,0.793457,-63.598633,-64.880371,-10.925293
85,0.617676,0.297363,0.752441,-51.330566,-79.711914,-1.586914
86,0.563965,0.215820,0.624512,-43.395996,-74.157715,24.414062
87,0.440918,0.120117,0.629883,-80.200195,-26.489258,45.471191
88,0.443848,0.074219,0.738281,-103.271484,-11.535645,55.908203
89,0.410645,-0.021484,0.783203,-117.248535,-9.643555,65.917969
90,0.327637,-0.351562,0.928223,-156.555176,-12.756348,65.307617
91,0.302734,-0.625977,0.970215,-180.236816,-19.287109,40.710449
92,0.329102,-0.851562,0.961914,-198.303223,-22.766113,3.051758
93,0.478027,-0.812012,0.839844,-213.989258,7.873535,-83.129883
94,0.548340,-0.619141,0.861328,-200.744629,25.817871,-103.271484
95,0.471680,-0.543457,0.810547,-177.307129,39.916992,-108.581543
96,0.320801,-0.382324,0.750977,-58.532715,34.179688,-85.021973
97,0.331543,-0.243652,0.714844,36.193848,17.333984,-58.166504
98,0.459961,-0.132812,0.764160,98.632812,22.766113,-23.376465
99,0.665527,-0.294434,0.871582,105.957031,85.754395,11.108398
100,0.569336,-0.407715,0.980957,88.989258,98.999023,6.286621
101,0.427246,-0.415527,1.146484,56.030273,107.971191,-11.962891
102,0.296387,-0.320801,1.435059,13.183594,106.567383,-33.996582
103,0.385254,-0.098633,1.270996,-87.219238,77.209473,-46.752930
104,0.234375,-0.203125,1.276367,-86.364746,68.237305,-28.625488
105,0.105469,-0.374512,1.256836,-82.031250,62.377930,-14.770508
106,0.069336,-0.480469,1.322266,-52.185059,21.301270,-13.305664
107,0.063965,-0.459961,1.272949,-56.579590,-0.671387,-23.803711
108,0.105957,-0.425293,1.217773,-67.932129,-20.996094,-38.024902
109,0.139648,-0.332031,1.019043,-93.994141,-35.217285,-48.583984
110,0.292969,-0.257324,0.158691,-100.524902,-4.211426,-29.052734
111,0.253906,-0.326660,0.005371,-35.766602,23.254395,-18.188477
112,0.277344,-0.292969,0.209961,40.039062,36.865234,-4.089355
113,0.193848,-0.513184,0.876465,66.833496,33.752441,-7.690430
114,0.203613,-0.557617,0.973145,2.014160,40.161133,-32.226562
115,0.328613,-0.438477,0.833496,-57.250977,59.326172,-51.513672
116,0.109863,-0.594727,0.265625,-101.867676,121.276855,-74.157715
117,-0.065430,-0.497070,0.142090,-70.251465,155.578613,-90.332031
118,-0.098145,-0.285645,0.096191,-18.737793,185.424805,-95.092773
119,0.016113,-0.014160,0.297363,23.864746,217.895508,-81.359863
120,0.165527,0.013672,1.082031,81.970215,249.389648,-7.324219
121,0.174805,0.002930,1.478516,131.286621,187.255859,11.718750
122,-0.021484,-0.557617,1.707031,83.923340,126.037598,1.403809
123,0.078125,-0.464844,1.109375,13.366699,-5.737305,-52.673340
124,0.162598,-0.479492,0.779297,5.615234,-35.034180,-58.044434
125,0.234863,-0.419922,0.535156,19.348145,-35.705566,-53.100586
126,0.085938,-0.401855,0.577637,52.307129,20.446777,-43.457031
127,0.003418,-0.338867,0.708496,70.556641,48.461914,-47.119141
128,0.005859,-0.241699,0.844727,77.514648,60.791016,-47.485352
129,0.052246,-0.193848,0.952637,65.612793,61.584473,-41.442871
130,0.091797,-0.297363,1.135254,-32.836914,51.818848,-38.024902
131,0.146973,-0.304688,1.121582,-88.195801,48.767090,-47.241211
132,0.229492,-0.257812,1.035156,-133.361816,63.842773,-53.588867
133,0.250488,-0.306152,0.877441,-181.518555,109.680176,-42.480469
134,0.230469,-0.453125,0.958496,-162.170410,106.140137,-33.813477
135,0.221680,-0.492188,1.089355,-136.291504,79.406738,-25.146484
136,0.132812,-0.668457,1.214355,-108.398438,11.352539,-1.098633
137,0.177246,-0.562012,1.562500,-111.083984,-33.264160,15.502930
138,0.223145,-0.533203,1.169434,-93.383789,-88.989258,44.799805
139,0.280762,-0.466309,0.811523,3.906250,-88.012695,113.708496
140,0.202148,-0.480957,0.909668,15.625000,-52.368164,130.554199
141,0.071289,-0.601562,0.918457,16.052246,-16.357422,125.000000
142,-0.025391,-0.600586,1.060059,35.461426,5.065918,95.275879
143,-0.107422,-0.670410,1.117676,41.442871,-0.610352,66.101074
144,-0.350098,-0.864746,1.088867,88.073730,-44.128418,-16.357422
145,-0.294922,-0.691895,1.152344,132.019043,-77.148438,-50.415039
146,-0.118164,-0.414062,1.113281,183.227539,-109.680176,-55.358887
147,0.099121,0.000488,1.619629,229.614258,-137.939453,5.798340
148,0.047363,0.108398,1.071777,15.502930,0.427246,42.114258
149,0.033691,-0.124512,0.953125,14.770508,20.996094,51.940918
150,0.020020,-0.142578,0.892578,34.118652,22.033691,75.073242
151,-0.090332,-0.070312,1.059082,47.302246,10.253906,93.750000
152,-0.077148,-0.188965,1.199707,-5.493164,-35.034180,44.738770
153,-0.009766,-0.002441,1.128418,-36.865234,-55.603027,23.071289
154,-0.127930,0.060059,0.993652,-58.593750,-78.308105,19.836426
155,-0.058105,0.130859,0.870605,-95.581055,-109.924316,53.649902
156,-0.085449,0.063965,0.722656,-118.347168,-108.642578,79.711914
157,-0.095215,-0.123047,0.611816,-122.375488,-86.791992,86.608887
158,-0.014648,-0.289551,0.684082,-121.215820,-60.852051,76.171875
159,0.043457,-0.350586,0.895020,-135.375977,-46.264648,53.283691
160,0.043945,-0.356445,0.796875,-124.938965,-60.668945,45.288086
161,0.094238,-0.414551,0.709473,-106.140137,-75.317383,35.461426
162,0.159180,-0.438477,0.640137,-80.627441,-76.416016,14.526367
163,0.156738,-0.319824,0.600098,-81.604004,-67.993164,20.202637
164,0.088867,-0.310059,0.576172,-81.665039,-57.128906,34.240723
165,0.081055,-0.425781,0.666992,-94.970703,-47.363281,21.179199
166,0.222168,-0.513672,0.489746,-108.947754,-38.574219,1.159668
167,0.239258,-0.499512,0.282715,-100.585938,-10.437012,-11.840820
168,0.283203,-0.330078,0.176758,-34.729004,29.602051,-6.469727
169,-0.258301,-0.899414,0.297363,-54.992676,114.379883,2.441406
170,-0.296875,-0.897461,0.268555,-58.288574,164.062500,-14.587402
171,-0.179199,-0.563477,0.758301,-50.964355,169.616699,-10.986328
172,-0.093750,-0.716309,0.791016,-37.170410,124.938965,-3.173828
173,0.046387,-0.696777,0.886230,-39.855957,82.397461,-10.070801
174,0.306641,-0.277832,1.424316,-72.326660,40.283203,-3.601074
175,0.321777,-0.060547,1.332520,-125.610352,-25.695801,58.166504
176,-0.764648,-0.250000,0.843262,-98.510742,-63.293457,195.495605
177,-0.812988,-0.380371,1.195801,-98.876953,-99.792480,277.099609
178,-0.876465,-0.718750,1.286133,-100.097656,-148.803711,316.955566
179,-0.806152,-0.752441,0.976562,-77.575684,-188.232422,298.095703
180,-0.742676,-0.671875,0.777344,-53.588867,-183.593750,291.870117
181,-0.690430,-0.556641,0.679688,-24.169922,-176.147461,302.307129
182,-0.636719,-0.360840,0.672852,3.479004,-174.926758,373.046875
183,-0.557617,-0.398438,0.695801,0.427246,-175.842285,410.156250
184,-0.498535,-0.436035,0.600098,-6.896973,-169.982910,430.358887
185,-0.418945,-0.457031,0.447266,-11.047363,-146.301270,432.495117
186,-0.236816,-0.470215,0.044434,-28.503418,-19.836426,400.512695
187,-0.324707,-0.458496,0.094727,-56.762695,72.387695,385.742188
188,-0.521484,-0.532715,0.555176,-104.064941,147.705078,373.901367
189,-1.125977,-0.866699,1.353027,-206.237793,156.982422,336.242676
190,-1.262695,-0.830566,1.576660,-207.092285,110.229492,330.261230
191,-1.308105,-0.890137,1.627441,-179.504395,59.753418,359.313965
192,-1.374023,-1.353027,1.731934,-145.202637,7.690430,362.182617
193,-1.017578,-2.289551,1.436035,-63.232422,-122.741699,252.319336
194,-0.698730,-2.500977,1.018555,3.784180,-166.870117,177.246094
195,-0.390625,-2.498047,0.646973,82.763672,-187.683105,103.942871
196,0.013184,-2.014648,0.054199,189.147949,-171.142578,-29.113770
197,0.188477,-1.765137,-0.250000,192.260742,-130.249023,-86.364746
198,0.378418,-1.477051,-0.437988,172.729492,-76.354980,-130.371094
199,0.399414,-1.274902,-0.682129,164.733887,-18.127441,-160.644531
200,0.350586,-0.675293,-0.795410,140.197754,128.417969,-172.119141
201,0.065430,-0.405273,-0.353027,120.178223,168.518066,-130.676270
202,-0.397949,-0.160645,0.131836,89.721680,147.644043,-89.477539
203,-1.012207,-0.080078,0.792969,-53.222656,53.405762,-74.218750
204,-1.008789,-0.136719,0.632324,-129.760742,24.291992,-89.233398
205,-0.973145,-0.306152,0.339844,-172.485352,18.737793,-91.613770
206,-0.866699,-0.538574,0.069824,-174.804688,18.188477,-77.941895
207,-0.520508,-0.749023,0.007812,-118.225098,23.193359,-34.545898
208,-0.561523,-0.713867,0.105469,-90.026855,30.578613,-39.794922
209,-0.575684,-0.631348,0.162109,-70.617676,38.208008,-49.865723
210,-0.559570,-0.789551,0.039551,-68.481445,61.401367,-88.317871
211,-0.466797,-0.754395,0.083496,-64.453125,81.298828,-111.572266
212,-0.504883,-0.758301,-0.009277,-56.884766,103.759766,-130.554199
213,-0.448242,-0.835449,-0.173828,-48.828125,133.789062,-150.939941
214,0.179199,-0.435059,-0.187988,-2.624512,205.688477,-119.934082
215,-0.169434,-0.742188,0.526367,-28.869629,222.412109,-70.800781
216,-0.646973,-0.874023,0.466309,-35.400391,230.163574,-103.576660
217,-0.425293,-0.895020,0.964355,-98.754883,181.579590,-264.343262
218,-0.399414,-0.893555,1.144043,-94.726562,136.657715,-348.510742
219,-0.873047,-1.103516,0.402344,-56.213379,110.595703,-364.379883
220,-0.878906,-0.765625,0.619141,-110.961914,103.759766,-323.486328
221,-0.042480,-1.083496,-0.167480,-58.227539,150.451660,-196.960449
222,-0.230957,-0.991699,-0.106445,-32.714844,218.444824,-139.343262
223,-0.482910,-1.030273,-0.018066,-7.324219,183.471680,-25.695801
224,-0.557617,-1.273438,-0.354492,47.424316,60.607910,57.189941
225,-0.666016,-1.342773,-0.017090,44.982910,106.872559,2.502441
226,-0.584473,-1.007324,0.586426,-30.578613,168.884277,-75.439453
227,-0.887207,-1.265625,0.670410,-66.772461,127.807617,-57.678223
228,-0.640625,-1.406738,0.668945,-88.562012,87.097168,-74.951172
229,-0.320312,-1.399902,0.550293,-106.689453,56.945801,-96.191406
230,-0.373047,-1.220215,0.103516,-76.049805,71.899414,-87.524414
231,-0.339355,-1.144043,-0.096680,-31.494141,79.040527,-55.358887
232,-0.396484,-1.149902,0.339355,-12.756348,97.045898,-27.648926
233,-1.021973,-0.540039,1.359863,117.431641,81.237793,-76.599121
234,-0.712891,-1.234375,1.407715,77.270508,-181.640625,-54.504395
235,-0.465332,-0.614746,-0.208496,-37.780762,-81.542969,-29.968262
236,-0.464355,-0.682617,0.171875,-23.193359,-46.569824,-18.432617
237,-0.460449,-0.517090,0.479492,-3.845215,-87.524414,9.338379
238,-0.352051,-0.203613,0.172363,-30.273438,-116.882324,87.463379
239,-0.241211,-0.104004,0.183594,-49.255371,-95.092773,126.647949
240,-0.240723,-0.266602,0.216797,-60.241699,-78.735352,160.888672
241,-0.314941,-0.450684,0.249512,-57.617188,-67.687988,167.907715
242,-0.555664,-0.323242,0.051270,-45.043945,-45.471191,178.405762
243,-0.509766,-0.587891,-0.156250,-52.368164,-29.235840,176.818848
244,-0.437988,-0.615723,-0.075684,-69.274902,-10.498047,176.696777
245,-0.363770,-0.709961,-0.280762,-86.547852,17.395020,169.860840
246,-0.229004,-0.864258,0.030762,-82.336426,95.458984,92.163086
247,-0.080566,-0.717773,0.280762,-87.707520,66.711426,102.172852
248,-0.114746,-1.051758,0.099121,-101.562500,44.311523,114.440918
249,-0.339844,-0.999512,0.161133,-97.839355,18.005371,7.629395
250,-0.381348,-0.734375,0.213379,-86.669922,-1.220703,-28.503418
251,-0.387695,-0.542969,0.196289,-79.467773,-23.132324,-40.100098
252,-0.364746,-0.464844,-0.022949,-66.528320,-61.950684,-19.165039
253,-0.397949,-0.463867,-0.051270,-70.251465,-43.884277,-4.882812
254,-0.409180,-0.372070,-0.011230,-80.688477,-36.804199,18.127441
255,-0.364746,-0.307129,-0.047852,-86.791992,-40.954590,37.109375
256,-0.331543,-0.559570,0.284668,-117.187500,-56.823730,-22.705078
257,-0.322754,-0.680664,0.485352,-165.283203,-126.403809,-36.010742
258,-0.594238,-1.123047,0.446777,-238.281250,-205.139160,-61.584473
259,-1.237305,-1.710938,-0.667480,-338.684082,-290.832520,-120.971680
260,-1.379395,-1.695312,-0.669922,-301.818848,-269.775391,-148.315430
261,-1.019043,-1.287598,-0.495605,-259.582520,-225.708008,-121.765137
262,-0.547852,-0.881348,-0.310547,-184.570312,-117.370605,-17.700195
263,-0.686523,-0.897949,-0.104004,-167.907715,-108.520508,2.258301
264,-0.995605,-1.193848,-0.426270,-159.790039,-102.539062,-10.559082
265,-1.165039,-1.202637,-1.252441,-98.510742,-46.569824,-69.641113
266,-1.093750,-1.064941,-1.438477,-24.475098,-36.621094,-66.406250
267,-0.887695,-0.630371,-1.216797,40.039062,-40.344238,-31.250000
268,-0.867188,-0.595215,-0.823242,40.161133,-52.856445,15.686035
269,-1.017090,-0.743652,-0.783691,-55.419922,-35.400391,-5.554199
270,-1.001465,-0.671387,-0.972168,-95.214844,4.699707,-24.047852
271,-0.823730,-0.573242,-0.985840,-78.308105,39.001465,-14.770508
272,-0.661621,-0.893555,-0.673340,-34.057617,37.109375,22.460938
273,-0.722656,-1.155273,-0.517578,-58.227539,16.235352,29.785156
274,-0.858398,-1.462891,-0.508789,-97.900391,10.742188,11.352539
275,-0.788086,-1.445312,-0.469238,-126.403809,22.277832,-18.859863
276,-0.464844,-1.083496,-0.201660,-124.389648,48.400879,-23.864746
277,-0.392090,-0.999512,-0.143066,-103.210449,45.715332,-12.512207
278,-0.405762,-0.985840,-0.224609,-78.552246,40.466309,-1.464844
279,-0.370117,-0.779297,-0.394043,-54.931641,62.622070,12.084961
280,-0.442871,-0.568359,-0.388672,-43.151855,70.312500,28.869629
281,-0.448242,-0.495117,-0.404785,-12.634277,70.922852,43.701172
282,-0.528809,-0.663086,-0.392090,18.737793,82.275391,60.424805
283,-0.557129,-0.703125,-0.358887,24.719238,85.510254,59.204102
284,-0.622559,-0.768555,-0.242676,11.047363,97.473145,51.269531
285,-0.727539,-0.739746,0.024902,-45.104980,100.585938,28.930664
286,-0.676270,-0.696777,0.131836,-71.838379,74.768066,20.690918
287,-0.518066,-0.623047,0.053711,-88.867188,42.602539,13.610840
288,-0.217285,-0.574707,-0.017090,-149.963379,-14.770508,-1.953125
289,-0.144043,-0.532715,-0.145508,-212.463379,-34.606934,-11.779785
290,-0.077637,-0.442383,-0.423340,-246.826172,-57.250977,-11.047363
291,-0.025391,-0.393555,-0.783203,-229.858398,-71.838379,-1.770020
292,-0.106445,-0.344238,-0.996094,-100.646973,-52.368164,12.512207
293,-0.146484,-0.276367,-0.795410,-44.921875,-45.166016,15.075684
294,-0.229492,-0.165039,-0.574219,46.875000,-42.480469,21.057129
295,-0.245117,-0.130859,-0.473633,90.820312,-43.762207,25.878906
296,-0.316895,-0.107910,-0.201172,111.083984,-43.273926,30.883789
297,-0.544922,-0.232910,-0.045898,54.748535,-35.705566,15.075684
298,-0.492188,-0.281250,-0.212402,82.031250,-87.524414,6.713867
299,-0.472656,-0.303223,-0.270996,83.251953,-125.427246,-1.342773
300,-0.458008,-0.324707,-0.520996,84.045410,-150.390625,-10.314941
301,-0.538574,-0.402832,-0.835938,99.792480,-139.221191,-27.893066
302,-0.621094,-0.465820,-0.880859,114.257812,-123.474121,-32.104492
303,-0.671387,-0.541992,-0.826172,125.366211,-111.083984,-33.752441
304,-0.651855,-1.005371,-0.860840,141.540527,-127.136230,-13.610840
305,-0.605469,-1.560059,-1.171387,98.266602,-130.432129,2.685547
306,-0.778320,-1.666016,-1.409668,79.467773,-121.582031,38.696289
307,-1.035645,-0.663574,0.165039,56.335449,-70.556641,31.555176
308,-0.967285,-0.509277,-0.232422,9.887695,-67.199707,-17.883301
309,-0.833008,-0.340332,-0.458496,9.643555,-64.819336,-29.296875
310,-0.823242,-0.338867,-0.520020,10.009766,-52.734375,-19.836426
311,-0.915039,-0.549316,-0.570312,5.554199,-10.437012,-3.601074
312,-0.960449,-0.808105,-0.418945,-0.427246,-1.953125,18.066406
313,-0.906250,-1.289062,-0.312012,1.770020,-21.179199,30.578613
314,-0.753906,-1.420898,-0.264648,43.579102,-21.850586,6.958008
315,-0.827637,-1.485840,-0.067871,63.903809,11.596680,-41.564941
316,-0.718750,-1.173828,-0.013184,68.115234,17.700195,-47.729492
317,-0.738770,-1.034668,0.050781,67.810059,19.409180,-40.771484
318,-0.672363,-0.798340,0.060547,52.368164,22.399902,-42.297363
319,-0.622559,-0.719238,0.062012,50.598145,23.803711,-36.193848
320,-0.597168,-0.675781,0.097168,53.222656,20.141602,-25.146484
321,-0.635254,-0.706055,0.249512,39.367676,4.516602,-26.672363
322,-0.645020,-0.723145,0.270020,22.155762,-4.882812,-30.151367
323,-0.653809,-0.756348,0.235352,12.390137,-15.197754,-30.822754
324,-0.629395,-0.827637,0.114746,10.375977,-26.672363,-34.179688
325,-0.603027,-0.821289,0.051758,12.512207,-26.245117,-37.109375
326,-0.610840,-0.836426,0.051758,14.099121,-27.099609,-38.085938
327,-0.522949,-0.816406,-0.037598,7.507324,-38.818359,-36.926270
328,-0.479004,-0.822266,-0.136230,18.310547,-46.813965,-32.775879
329,-0.442383,-0.795898,-0.126465,31.982422,-55.053711,-26.794434
330,-0.470215,-0.771484,-0.080078,33.142090,-59.326172,-18.371582
331,-0.486328,-0.801270,-0.187500,30.944824,-52.612305,-24.780273
332,-0.476562,-0.756836,-0.254883,31.921387,-37.719727,-30.700684
333,-0.683105,-0.655273,-0.109375,51.147461,-38.574219,-28.137207
334,-0.648438,-0.603516,-0.187500,57.739258,-43.273926,-24.047852
335,-0.583008,-0.560059,-0.263184,54.382324,-36.254883,-20.324707
336,-0.517578,-0.447754,-0.309082,23.498535,-9.033203,-43.334961
337,-0.279297,-0.318359,-0.376465,13.610840,-5.554199,-39.794922
338,-0.271484,-0.354004,-0.351562,2.685547,-6.713867,-24.719238
339,-0.324707,-0.417969,-0.389648,-0.244141,-13.977051,-2.990723
340,-0.476562,-0.592285,-0.342773,5.920410,-14.526367,28.991699
341,-0.560547,-0.706543,-0.388184,-5.554199,2.563477,27.465820
342,-0.464355,-0.632324,-0.413574,-24.658203,44.799805,30.578613
343,-0.545898,-0.708496,-0.394531,-25.451660,63.110352,38.391113
344,-0.693848,-0.862793,-0.222656,-20.568848,67.199707,36.865234
345,-0.797363,-1.004883,-0.076172,-22.277832,53.771973,24.963379
346,-0.881348,-1.081055,-0.155762,-19.348145,24.169922,-34.179688
347,-0.772949,-1.173340,-0.266602,-11.901855,14.709473,-50.170898
348,-0.655762,-1.251465,-0.193848,-7.690430,6.530762,-67.260742
349,-0.307129,-1.333496,-0.680664,-9.338379,1.953125,-78.918457
350,-0.043457,-1.090820,-0.932129,18.127441,34.301758,-54.931641
351,-0.102051,-0.565430,-0.352539,-11.230469,106.872559,51.330566
352,-0.394531,-0.671875,-0.400391,-61.828613,131.347656,78.979492
353,-0.658691,-0.770020,-0.223633,-100.708008,140.441895,84.838867
354,-0.869141,-0.940918,-0.202637,-117.675781,129.638672,76.477051
355,-1.084473,-1.007812,-0.019043,-104.858398,53.894043,29.357910
356,-0.809570,-0.938477,-0.170410,-94.848633,6.591797,25.146484
357,-0.553711,-1.055664,-0.476562,-81.542969,1.037598,31.066895
358,-0.661133,-1.274902,-0.396973,-87.524414,19.897461,27.770996
359,-0.714355,-1.441895,-0.126953,-92.590332,19.653320,5.310059
360,-0.537109,-1.098633,-0.026855,-99.548340,-18.554688,-4.089355
361,-0.558105,-1.067383,-0.115723,-99.121094,-19.409180,0.549316
362,-0.609863,-1.041992,-0.112305,-100.524902,-10.681152,-2.929688
363,-0.608887,-0.979980,-0.182617,-115.112305,8.605957,-17.822266
364,-0.347168,-0.640137,-0.436523,-141.113281,68.603516,-26.611328
365,-0.244141,-0.383789,-0.323242,-127.929688,86.547852,-13.183594
366,-0.301758,-0.356934,-0.214355,-98.449707,74.035645,13.000488
367,-0.612793,-0.467285,-0.123047,-24.597168,4.577637,39.550781
368,-0.777832,-0.657715,-0.213379,-5.676270,-6.896973,31.250000
369,-0.845215,-0.633301,-0.104492,8.239746,-8.056641,14.343262
370,-0.786133,-0.471191,-0.061523,20.751953,-19.409180,7.873535
371,-0.583496,-0.523926,-0.110840,27.221680,-24.108887,12.756348
372,-0.430664,-0.529785,-0.236816,26.489258,-37.780762,8.300781
373,-0.240234,-0.455078,-0.387207,38.452148,-51.818848,16.967773
374,-0.188965,-0.629395,-0.603027,34.057617,-101.562500,65.063477
375,-0.320312,-0.894043,-0.725098,13.000488,-142.639160,75.927734
376,-0.393555,-0.898926,-0.515137,7.507324,-166.381836,69.946289
377,-0.529297,-0.864746,-0.238281,-27.221680,-171.630859,31.127930
378,-0.491699,-0.671875,-0.400879,-49.865723,-123.596191,6.103516
379,-0.391113,-0.418945,-0.554688,9.826660,-8.972168,-2.563477
380,-0.447266,-0.393066,-0.604492,71.655273,-7.812500,-2.868652
381,-0.561523,-0.355957,-0.679199,104.187012,10.375977,-15.808105
382,-0.606445,-0.225586,-0.515625,90.820312,87.890625,-36.376953
383,-0.680664,-0.338867,-0.214355,54.443359,108.032227,-31.066895
384,-0.792969,-0.509766,-0.064941,12.207031,101.867676,-31.799316
385,-0.958984,-0.699219,-0.119629,-14.770508,40.039062,-52.734375
386,-0.842285,-0.634766,-0.246094,2.319336,6.652832,-64.758301
387,-0.699707,-0.580566,-0.286133,18.615723,-12.329102,-68.603516
388,-0.601562,-0.721680,-0.246582,37.475586,-23.132324,-81.542969
389,-0.549316,-0.783203,-0.214355,38.635254,-23.925781,-94.299316
390,-0.483398,-0.776855,-0.383789,48.278809,-21.423340,-101.257324
391,-0.545410,-1.054199,-1.581543,100.646973,63.171387,-78.674316
392,-0.671387,-1.132812,-1.091797,148.620605,76.904297,-67.749023
393,-0.619629,-0.984375,-0.523926,213.806152,-1.281738,-35.156250
394,-0.498535,-0.876465,-0.572754,234.802246,-44.982910,-8.666992
395,-0.662109,-0.623535,-0.118164,207.519531,-68.908691,10.314941
396,-0.614746,-0.649414,-0.042969,146.179199,-69.580078,19.897461
397,-0.618652,-1.304688,-0.066406,85.083008,-13.122559,-7.690430
398,-0.433105,-1.314453,0.288574,89.904785,4.333496,-27.160645
399,-0.330566,-1.077637,0.729980,67.016602,12.573242,-38.146973
400,-0.402832,-0.773438,0.672852,-19.470215,-3.173828,-28.808594
401,-0.535645,-0.773926,0.338379,-31.066895,-25.268555,-18.981934
402,-0.542969,-0.766113,0.080078,-18.432617,-30.822754,-14.770508
403,-0.490723,-0.762695,-0.393066,22.399902,-26.672363,-13.305664
404,-0.278809,-0.929688,0.047363,66.345215,4.394531,0.915527
405,-0.358887,-0.983398,0.186523,43.273926,6.469727,-4.760742
406,-0.559082,-1.060059,0.353027,11.169434,-32.104492,-16.845703
407,-0.597656,-1.062012,0.345215,17.944336,-50.109863,-23.620605
408,-0.651367,-1.104492,0.270996,28.320312,-62.072754,-29.724121
409,-0.623047,-1.035645,0.066406,42.785645,-71.411133,-37.719727
410,-0.440918,-0.916016,0.011719,41.259766,-59.631348,-47.790527
411,-0.310059,-0.909668,0.003418,18.249512,-43.762207,-37.902832
412,-0.285156,-1.003906,0.077637,5.920410,-26.794434,-27.587891
413,-0.343262,-0.927734,0.253418,10.253906,-9.155273,-21.667480
414,-0.400391,-0.957520,0.271973,15.014648,-7.202148,-20.507812
415,-0.339844,-0.958008,0.257324,19.653320,-13.305664,-18.615723
416,-0.273438,-0.950195,-0.118652,6.530762,-8.911133,-8.911133
417,-0.235840,-0.960938,-0.147461,-10.437012,12.695312,-7.263184
418,-0.274902,-0.980469,-0.129395,-19.775391,25.390625,-9.277344
419,-0.433594,-0.911621,-0.136719,0.061035,38.696289,-16.296387
420,-0.470215,-0.852539,-0.048828,5.676270,48.583984,-25.634766
421,-0.430664,-0.627441,0.026855,12.329102,51.269531,-25.939941
422,-0.481445,-0.507812,0.153320,32.165527,19.348145,-23.315430
423,-0.478516,-0.459473,0.075195,49.072266,0.061035,-23.742676
424,-0.218750,-0.153320,-0.033691,48.950195,-0.793457,-8.789062
425,-0.181152,-0.214844,0.022949,36.376953,4.638672,17.578125
426,-0.456055,-0.535156,0.040039,32.165527,1.281738,35.156250
427,-0.453125,-0.540527,0.086426,35.766602,-7.263184,42.175293
428,-0.457031,-0.681641,0.254395,12.573242,-22.155762,58.776855
429,-0.487793,-0.970215,0.335449,-11.535645,-32.409668,60.913086
430,-0.437012,-1.138184,0.139648,-33.813477,-45.349121,47.058105
431,-0.295898,-1.089355,-0.202637,-24.414062,-46.325684,52.490234
432,-0.616211,-1.233398,-0.277344,-6.774902,2.929688,42.968750
433,-0.615234,-1.147949,-0.026367,-12.878418,15.563965,19.897461
434,-0.543945,-0.980957,0.095703,-22.766113,13.366699,-4.821777
435,-0.432617,-0.992188,0.000977,-16.418457,-1.586914,-10.131836
436,-0.340820,-1.065918,-0.187500,6.469727,4.028320,-5.920410
437,-0.301758,-1.112793,-0.223633,36.621094,10.681152,-1.892090
438,-0.414551,-1.288574,-0.097168,53.405762,9.704590,-12.573242
439,-0.422363,-1.341797,-0.066895,34.179688,8.361816,-25.878906
440,-0.325195,-1.172852,-0.130371,14.526367,12.390137,-26.428223
441,-0.262207,-1.074707,-0.135742,-5.615234,23.010254,-4.333496
442,-0.375488,-0.960449,-0.037109,-11.413574,23.315430,3.906250
443,-0.457031,-0.953613,0.005371,-23.437500,22.644043,16.662598
444,-0.496582,-1.221191,0.174805,-32.714844,11.596680,27.282715
445,-0.449219,-1.304688,0.231934,-39.123535,11.657715,31.616211
446,-0.362305,-1.399902,0.239258,-46.081543,19.775391,38.452148
447,-0.325684,-1.408691,-0.036133,-30.578613,60.729980,58.959961
448,-0.417969,-1.243164,-0.034180,-20.629883,93.261719,71.228027
449,-0.514160,-1.042969,0.017090,-18.249512,120.300293,75.073242
450,-0.718750,-0.766113,0.201172,-6.591797,129.760742,81.848145
451,-0.806152,-0.674805,0.270508,15.991211,113.037109,88.562012
452,-0.845703,-0.605469,0.318359,45.898438,85.998535,96.923828
453,-0.954590,-0.649414,0.201172,85.632324,36.926270,102.905273
454,-0.992676,-0.694336,0.177246,96.862793,20.019531,97.045898
455,-0.976562,-0.680664,0.104004,111.145020,3.112793,86.975098
456,-0.874023,-0.530762,-0.051270,128.173828,-7.690430,70.922852
457,-0.816406,-0.437012,-0.079102,124.633789,-0.671387,67.199707
458,-0.767578,-0.427734,-0.043945,108.703613,8.117676,65.795898
459,-0.716309,-0.435547,0.013672,83.984375,16.784668,60.913086
460,-0.728027,-0.420898,0.242188,13.793945,15.991211,44.006348
461,-0.742676,-0.398926,0.308105,-38.085938,12.329102,29.724121
462,-0.715332,-0.448730,0.286621,-82.092285,6.408691,13.610840
463,-0.577148,-0.930176,-0.028809,-114.440918,-3.784180,-22.460938
464,-0.511230,-0.917480,-0.030273,-106.689453,-14.770508,-29.846191
465,-0.387207,-0.828125,-0.062500,-97.045898,-19.287109,-24.841309
466,-0.137695,-0.602539,-0.007812,-55.297852,-28.564453,15.686035
467,-0.175293,-0.531250,0.032715,-36.437988,-36.010742,28.442383
468,-0.425293,-0.565918,-0.188477,3.540039,-28.198242,13.061523
469,-0.413574,-0.416504,-0.098145,20.324707,-13.610840,-4.394531
470,-0.433594,-0.342773,-0.017090,25.939941,-0.061035,-15.014648
471,-0.465820,-0.293457,0.075195,19.287109,12.023926,-22.888184
472,-0.577148,-0.362305,0.123535,-13.427734,28.503418,-41.625977
473,-0.632812,-0.371582,0.100098,-25.939941,36.132812,-49.133301
474,-0.672363,-0.385742,0.067871,-32.592773,43.273926,-54.687500
475,-0.666504,-0.423828,0.032227,-38.269043,49.255371,-58.593750
476,-0.684082,-0.601562,-0.155762,-55.847168,47.241211,-66.284180
477,-0.689941,-0.734863,-0.277832,-67.382812,43.212891,-69.152832
478,-0.711914,-1.158203,-0.556641,-98.510742,25.390625,-72.448730
479,-0.768555,-1.367188,-0.831543,-104.858398,20.263672,-60.729980
480,-0.856934,-1.518066,-1.021973,-89.599609,24.719238,-46.142578
481,-0.943848,-1.539062,-1.054688,-45.471191,34.484863,-41.076660
482,-0.646973,-0.730469,-0.354492,56.152344,38.330078,-36.315918
483,-0.611816,-0.448730,-0.020020,72.509766,21.911621,-26.000977
484,-0.675781,-0.296387,0.210938,65.063477,4.760742,-21.850586
485,-0.799805,-0.336426,0.141113,17.028809,-5.493164,-37.353516
486,-0.782715,-0.437012,-0.015625,17.822266,8.300781,-41.198730
487,-0.778320,-0.628418,-0.051758,34.362793,21.667480,-30.822754
488,-0.846680,-1.075684,-0.088379,38.391113,31.616211,-9.155273
489,-1.123047,-1.838379,-0.177734,51.208496,41.198730,24.291992
490,-1.046875,-1.333984,0.020996,153.869629,16.357422,52.856445
491,-1.058594,-0.930664,0.292480,197.204590,15.563965,48.217773
492,-0.980957,-0.460938,0.487793,173.156738,27.770996,7.019043
493,-0.870605,-0.350586,0.478027,147.155762,32.165527,-14.282227
494,-0.737305,-0.261719,0.416992,124.572754,37.414551,-29.052734
495,-0.569824,-0.270020,0.363281,104.248047,44.433594,-44.006348
496,-0.500488,-0.349609,0.389648,95.092773,43.029785,-54.138184
497,-0.482910,-0.461914,0.394043,81.542969,41.381836,-67.749023
498,-0.528320,-0.640137,0.416992,69.458008,42.053223,-84.472656
499,-0.710449,-1.044434,0.438965,72.998047,42.114258,-122.863770
500,-0.764648,-1.128418,0.458984,88.623047,41.809082,-133.361816
501,-0.748535,-1.139648,0.449219,106.750488,44.738770,-127.258301
502,-0.475586,-0.991211,0.702148,111.083984,61.828613,-64.697266
503,-0.369629,-0.865234,0.857910,72.509766,52.429199,-27.587891
504,-0.359375,-0.812012,0.734375,28.625488,31.250000,-6.896973
505,-0.374023,-0.772949,0.218262,-12.084961,18.127441,-16.296387
506,-0.352051,-0.756836,0.065430,-11.230469,27.221680,-28.625488
507,-0.327637,-0.750488,-0.036133,5.371094,61.584473,-46.875000
508,-0.304688,-0.736816,-0.110840,15.930176,81.848145,-48.767090
509,-0.310059,-0.724121,-0.107910,24.353027,100.585938,-47.119141
510,-0.327148,-0.725586,-0.093750,29.968262,116.455078,-41.931152
511,-0.364746,-0.746582,-0.041504,38.574219,131.347656,-26.672363
512,-0.382812,-0.774902,-0.007324,44.677734,128.234863,-18.127441
513,-0.391113,-0.789062,0.017090,51.147461,119.628906,-10.864258
514,-0.396973,-0.820801,0.037109,56.457520,108.215332,-4.943848
515,-0.369141,-0.837891,0.102051,57.434082,80.810547,3.417969
516,-0.369141,-0.887695,0.149902,53.161621,64.453125,9.399414
517,-0.403809,-0.998047,0.184082,39.245605,34.729004,16.174316
518,-0.423828,-1.043457,0.159668,30.212402,29.296875,17.211914
519,-0.445801,-1.086426,0.125488,20.507812,31.494141,16.418457
520,-0.442871,-1.136230,0.017578,14.648438,53.833008,10.986328
521,-0.417480,-1.107422,-0.005859,21.667480,66.772461,6.469727
522,-0.400391,-1.037598,-0.019043,34.790039,77.392578,4.455566
523,-0.437500,-0.843750,0.092773,51.879883,90.270996,10.131836
524,-0.479492,-0.778320,0.166016,49.011230,88.684082,13.610840
525,-0.510742,-0.727539,0.193848,42.114258,84.045410,15.563965
526,-0.562500,-0.714355,0.187012,27.343750,75.561523,12.878418
527,-0.565430,-0.756836,0.194336,20.812988,73.547363,8.911133
528,-0.539062,-0.821777,0.207520,15.136719,73.486328,6.958008
529,-0.516602,-0.947266,0.259277,11.901855,73.364258,9.765625
530,-0.538086,-0.965820,0.301270,15.747070,71.716309,15.502930
531,-0.603027,-1.046387,0.349609,23.010254,67.321777,21.667480
532,-0.732422,-1.214844,0.407715,49.987793,52.429199,18.493652
533,-0.703125,-1.108887,0.394043,61.523438,50.537109,14.160156
534,-0.649414,-0.909180,0.375488,66.955566,52.917480,17.517090
535,-0.637207,-0.781250,0.349609,69.396973,54.321289,22.644043
536,-0.562500,-0.543945,0.359375,66.650391,46.875000,25.390625
537,-0.517578,-0.457520,0.380859,59.753418,38.024902,28.991699
538,-0.483398,-0.395020,0.419434,43.334961,22.888184,34.606934
539,-0.517578,-0.414551,0.390137,10.681152,-11.962891,51.879883
540,-0.562988,-0.489746,0.370117,7.873535,-33.935547,61.340332
541,-0.620117,-0.594238,0.366699,9.216309,-57.617188,75.988770
542,-0.750488,-0.941406,0.088379,-12.817383,-65.673828,100.463867
543,-0.807617,-1.167969,-0.131836,-34.790039,-39.184570,96.191406
544,-0.846191,-1.274902,-0.279785,-53.955078,1.220703,85.998535
545,-0.844727,-1.221191,-0.280762,-62.072754,42.175293,78.063965
546,-0.801758,-0.909180,0.018066,-44.189453,85.693359,73.913574
547,-0.752930,-0.751953,0.178223,-25.695801,88.989258,67.993164
548,-0.640137,-0.529297,0.395996,-2.319336,76.843262,54.809570
549,-0.645508,-0.529785,0.418457,-2.502441,70.556641,49.987793
550,-0.671875,-0.588379,0.396973,-7.812500,67.382812,44.433594
551,-0.682129,-0.631836,0.349609,-11.535645,66.345215,37.048340
552,-0.623047,-0.631836,0.306152,-2.258301,56.213379,34.057617
553,-0.577637,-0.643066,0.298828,11.108398,45.043945,34.912109
554,-0.540527,-0.645508,0.279297,25.756836,32.226562,33.386230
555,-0.533691,-0.630859,0.225586,36.621094,24.047852,31.616211
556,-0.558594,-0.621094,0.164062,39.611816,25.390625,23.803711
557,-0.572754,-0.622559,0.145020,35.583496,26.916504,18.493652
558,-0.580078,-0.618164,0.111816,30.212402,26.733398,13.732910
559,-0.592773,-0.618164,0.034668,19.775391,25.939941,8.850098
560,-0.610352,-0.633301,-0.008789,16.052246,27.099609,7.751465
561,-0.641113,-0.654785,-0.050293,13.854980,30.517578,5.859375
562,-0.689453,-0.669922,-0.066406,12.023926,40.466309,-0.061035
563,-0.703613,-0.655273,-0.050781,10.681152,42.846680,-3.234863
564,-0.728027,-0.620117,-0.026855,6.774902,39.916992,-6.103516
565,-0.774414,-0.606445,-0.026855,-0.427246,31.311035,-7.446289
566,-0.853027,-0.649414,-0.123047,-21.057129,12.390137,-9.582520
567,-0.834961,-0.683105,-0.201172,-22.399902,9.765625,-11.230469
568,-0.802246,-0.705078,-0.219727,-17.272949,13.366699,-13.244629
569,-0.787598,-0.712402,-0.201660,-10.131836,18.371582,-15.319824
570,-0.781250,-0.723145,-0.138184,0.488281,27.160645,-18.310547
571,-0.775879,-0.714355,-0.099609,6.774902,29.968262,-17.456055
572,-0.737305,-0.655273,-0.026367,19.470215,29.907227,-14.160156
573,-0.727539,-0.631348,-0.007324,20.812988,29.968262,-13.488770
574,-0.722656,-0.610352,-0.002930,19.226074,30.700684,-13.793945
575,-0.716309,-0.591309,-0.016602,18.188477,31.188965,-14.404297
576,-0.731445,-0.616211,-0.084473,20.507812,29.968262,-18.249512
577,-0.752930,-0.644531,-0.143555,18.798828,30.151367,-20.812988
578,-0.760742,-0.651855,-0.201660,13.061523,32.165527,-22.399902
579,-0.745605,-0.654785,-0.261719,8.605957,36.010742,-26.062012
580,-0.756836,-0.645996,-0.252930,12.512207,34.545898,-28.930664
581,-0.823242,-0.573242,-0.153809,29.479980,20.996094,-29.296875
582,-0.869141,-0.519043,-0.095703,42.968750,12.634277,-27.770996
583,-0.914551,-0.517090,-0.053223,55.419922,8.911133,-27.404785
584,-0.879395,-0.549805,-0.031738,61.767578,17.150879,-30.761719
585,-0.854004,-0.583984,-0.037109,53.161621,28.320312,-30.456543
586,-0.842285,-0.631348,-0.027344,47.546387,39.428711,-29.357910
587,-0.826660,-0.691895,0.003418,51.391602,44.738770,-27.282715
588,-0.764648,-0.706543,0.069336,98.510742,31.738281,-16.418457
589,-0.728516,-0.663086,0.122559,130.187988,18.676758,-13.244629
590,-0.713379,-0.659180,0.178711,146.423340,3.601074,-14.343262
591,-0.720703,-0.714844,0.179199,133.666992,5.737305,-19.470215
592,-0.737305,-0.788086,0.161133,118.103027,13.244629,-28.564453
593,-0.752930,-0.901367,0.130371,105.468750,34.301758,-56.945801
594,-0.708008,-0.884766,0.146973,115.112305,41.625977,-70.678711
595,-0.628418,-0.817871,0.197266,132.507324,42.907715,-77.758789
596,-0.507812,-0.723145,0.333984,171.142578,32.897949,-72.265625
597,-0.488281,-0.717773,0.399414,181.945801,27.160645,-67.687988
598,-0.480469,-0.716309,0.464844,185.668945,25.146484,-65.490723
599,-0.474121,-0.730469,0.595703,162.719727,35.217285,-63.720703
600,-0.489258,-0.763184,0.677734,141.601562,39.733887,-61.828613
601,-0.502441,-0.810059,0.730469,115.966797,41.076660,-59.753418
602,-0.500000,-0.860840,0.754395,54.626465,43.823242,-52.246094
603,-0.503906,-0.874512,0.758789,17.211914,47.058105,-46.508789
604,-0.476562,-0.905762,0.699219,-32.470703,39.733887,-36.315918
605,-0.442871,-0.932129,0.630859,-37.292480,28.381348,-32.897949
606,-0.407227,-0.916992,0.570801,-29.541016,13.122559,-29.785156
607,-0.403320,-0.887207,0.375488,0.793457,-9.948730,-23.620605
608,-0.402344,-0.899414,0.311523,13.366699,-10.742188,-26.550293
609,-0.375977,-0.900391,0.256836,22.888184,-7.751465,-33.752441
610,-0.339844,-0.851074,0.050293,39.123535,14.892578,-49.743652
611,-0.353516,-0.861328,-0.036133,43.212891,41.564941,-54.321289
612,-0.401367,-0.903320,-0.055664,43.090820,70.800781,-61.889648
613,-0.464844,-0.933105,-0.032227,37.170410,119.262695,-86.120605
614,-0.474121,-0.907227,-0.011230,29.602051,136.779785,-95.031738
615,-0.481934,-0.894531,0.023926,14.282227,149.169922,-100.341797
616,-0.493164,-0.897461,-0.008789,-25.573730,156.921387,-100.280762
617,-0.485352,-0.913086,-0.024414,-39.306641,153.503418,-98.754883
618,-0.442871,-0.875000,-0.010742,-46.142578,144.409180,-93.811035
619,-0.317383,-0.746094,0.096680,-48.950195,98.144531,-67.749023
620,-0.235840,-0.686035,0.156738,-48.156738,68.969727,-48.217773
621,-0.167969,-0.657715,0.200195,-51.635742,37.597656,-25.817871
622,-0.137695,-0.741211,0.167480,-48.400879,-23.254395,11.596680
623,-0.157227,-0.815918,0.104492,-39.001465,-47.607422,23.498535
624,-0.174805,-0.865234,0.070801,-28.869629,-64.575195,34.301758
625,-0.227539,-0.987305,0.023926,-17.395020,-79.284668,53.955078
626,-0.263672,-1.054199,0.004883,-13.977051,-80.078125,61.279297
627,-0.307617,-1.135254,-0.026367,-9.521484,-77.392578,64.941406
628,-0.386230,-1.278809,-0.108887,4.760742,-59.204102,51.452637
629,-0.406250,-1.297363,-0.211914,15.197754,-39.306641,35.522461
630,-0.454102,-1.319336,-0.342773,29.663086,-7.385254,15.502930
631,-0.516602,-1.156250,-0.269043,50.170898,69.946289,-13.916016
632,-0.555664,-1.041016,-0.151367,42.236328,102.722168,-15.075684
633,-0.596191,-0.967285,-0.025391,24.963379,125.427246,-11.657715
634,-0.629883,-0.943848,0.103516,8.361816,131.958008,-10.009766
635,-0.644531,-0.911133,0.267090,-10.986328,102.722168,-4.516602
636,-0.662109,-0.994141,0.307129,-7.629395,78.308105,6.591797
637,-0.658691,-1.143066,0.661133,-5.310059,8.605957,19.897461
638,-0.602539,-1.053223,0.691406,-23.742676,-31.555176,22.277832
639,-0.555664,-0.887695,0.583984,-47.363281,-60.424805,26.916504
640,-0.543945,-0.766602,0.481445,-71.960449,-73.913574,33.325195
641,-0.624023,-0.642090,0.414551,-113.891602,-81.909180,42.053223
642,-0.694336,-0.614746,0.411133,-123.046875,-87.829590,45.776367
643,-0.762207,-0.600098,0.431641,-123.352051,-94.543457,50.903320
644,-0.830078,-0.595215,0.398926,-102.600098,-102.416992,54.565430
645,-0.767090,-0.575195,0.406250,-73.974609,-98.327637,55.053711
646,-0.708008,-0.609375,0.428223,-46.630859,-89.294434,51.452637
647,-0.494141,-0.549316,0.392578,-15.319824,-57.739258,37.048340
648,-0.428711,-0.536621,0.386719,-22.094727,-46.752930,35.034180
649,-0.386230,-0.532715,0.386719,-49.255371,-48.278809,42.846680
650,-0.362793,-0.548828,0.316895,-83.312988,-58.959961,57.312012
651,-0.300293,-1.107910,0.211914,-173.461914,-121.032715,123.046875
652,-0.452637,-1.410156,-0.445312,-235.839844,-122.192383,146.545410
653,-0.512207,-1.159668,-0.737305,-260.192871,-63.842773,135.437012
654,-0.478516,-0.663574,-0.372559,-230.163574,5.004883,103.820801
655,-0.434570,-0.538086,-0.309570,-210.021973,14.953613,87.341309
656,-0.377930,-0.475586,-0.260254,-179.321289,17.578125,71.777344
657,-0.359863,-0.403320,-0.165039,-147.216797,17.028809,55.480957
658,-0.416992,-0.349609,-0.034668,-90.820312,6.042480,22.338867
659,-0.473633,-0.335938,-0.039551,-63.537598,0.305176,4.516602
660,-0.602051,-0.340820,-0.062500,-17.211914,-13.488770,-27.893066
661,-0.636230,-0.346191,-0.069336,-2.746582,-26.794434,-41.564941
662,-0.656250,-0.414062,-0.129395,5.065918,-42.785645,-55.541992
663,-0.645996,-0.465332,-0.222656,7.141113,-55.541992,-70.251465
664,-0.648438,-0.646973,-0.515137,-16.052246,-49.194336,-94.482422
665,-0.654297,-0.823242,-0.657227,-32.653809,-30.395508,-100.769043
666,-0.791504,-1.446289,-0.991699,-47.790527,2.441406,-75.256348
667,-0.744141,-1.742676,-0.955566,-23.803711,18.188477,-37.414551
668,-0.806152,-1.312988,-0.345703,35.583496,1.281738,35.339355
669,-1.046387,-1.126465,0.000000,78.430176,-21.484375,66.406250
670,-1.112793,-0.798340,0.224121,94.177246,-30.578613,73.486328
671,-1.237305,-0.653320,0.355469,23.071289,-15.014648,82.031250
672,-1.224609,-0.804688,0.191406,-24.536133,7.141113,69.885254
673,-1.144043,-0.883301,0.067383,-48.645020,31.799316,49.804688
674,-0.756348,-0.855957,0.043457,-22.460938,46.630859,5.615234
675,-0.649414,-0.824707,0.031738,5.065918,40.100098,-15.869141
676,-0.538574,-0.806152,0.043457,61.096191,19.775391,-51.818848
677,-0.506836,-0.807129,0.093262,81.420898,9.338379,-67.321777
678,-0.455078,-0.776855,0.166016,101.318359,-4.272461,-81.542969
679,-0.350586,-0.677246,0.289551,136.169434,-33.935547,-102.111816
680,-0.328125,-0.633789,0.317871,150.573730,-42.907715,-105.895996
681,-0.347168,-0.664062,0.346680,162.414551,-44.616699,-109.130859
682,-0.345215,-0.726562,0.467773,174.743652,-33.447266,-122.070312
683,-0.339844,-0.790527,0.531250,172.729492,-24.536133,-123.107910
684,-0.344727,-0.909668,0.618164,158.020020,-6.774902,-111.328125
685,-0.394043,-1.173340,0.684082,141.784668,-2.319336,-100.524902
686,-0.406250,-1.301758,0.614746,114.990234,9.216309,-91.430664
687,-0.397949,-1.378418,0.539062,83.862305,20.690918,-87.219238
688,-0.390625,-1.395996,0.335938,12.634277,30.700684,-95.825195
689,-0.341309,-1.193359,0.117188,-24.047852,34.179688,-100.708008
690,-0.341309,-0.772461,-0.098145,-69.030762,50.842285,-87.402344
691,-0.353027,-0.613281,-0.080566,-90.026855,49.499512,-73.852539
692,-0.384277,-0.532715,-0.191895,-112.609863,42.663574,-63.964844
693,-0.384766,-0.471191,-0.318848,-114.990234,41.015625,-56.152344
694,-0.292969,-0.493652,-0.325195,-69.152832,41.320801,-40.954590
695,-0.237305,-0.519531,-0.202637,-39.062500,33.325195,-34.240723
696,-0.207031,-0.538086,-0.096191,-14.709473,18.554688,-22.338867
697,-0.195312,-0.560059,-0.024902,2.746582,3.295898,-7.934570
698,-0.197754,-0.599121,0.072754,12.878418,-19.348145,22.460938
699,-0.210938,-0.651367,0.062988,9.460449,-25.268555,36.621094
700,-0.223145,-0.732910,0.030273,4.821777,-26.794434,47.790527
701,-0.231445,-0.889160,-0.056152,-2.136230,-17.883301,58.410645
702,-0.231445,-0.988281,-0.098145,-2.929688,-7.690430,56.457520
703,-0.232910,-1.093262,-0.132324,-1.220703,5.004883,50.109863
704,-0.238281,-1.183594,-0.118652,0.732422,17.578125,40.344238
705,-0.250977,-1.301270,-0.058105,-4.394531,29.113770,19.592285
706,-0.260254,-1.303711,-0.122559,-3.173828,31.372070,13.916016
707,-0.320312,-1.246582,-0.415527,7.324219,60.607910,9.521484
708,-0.406250,-1.209473,-0.368652,11.535645,94.848633,7.629395
709,-0.455566,-1.047363,-0.171875,7.812500,116.271973,8.911133
710,-0.492188,-0.930176,0.092285,-3.845215,111.938477,18.188477
711,-0.543945,-0.974609,0.438965,-29.357910,43.395996,44.067383
712,-0.615723,-1.135254,0.551270,-29.479980,-10.131836,53.466797
713,-0.717285,-1.353027,0.649414,-17.028809,-70.800781,55.236816
714,-0.768555,-1.580566,0.551758,28.442383,-163.208008,33.142090
715,-0.613770,-1.259766,0.345215,35.827637,-145.996094,31.616211
716,-0.455078,-0.920898,0.228516,22.521973,-90.332031,38.208008
717,-0.252930,-0.449219,0.381348,-28.564453,-11.108398,35.644531
718,-0.235840,-0.313477,0.378418,-49.499512,-1.647949,35.461426
719,-0.276367,-0.234375,0.338867,-60.852051,-1.342773,39.550781
720,-0.539062,-0.450195,0.362305,-29.357910,-25.085449,54.626465
721,-0.637695,-0.575195,0.437988,5.065918,-54.016113,64.208984
722,-0.677734,-0.695801,0.469238,29.968262,-88.195801,81.481934
723,-0.665527,-1.055664,0.326172,7.507324,-127.685547,140.625000
724,-0.696289,-1.206055,0.202637,-50.659180,-129.882812,170.349121
725,-0.865234,-1.279785,-0.055664,-117.919922,-108.642578,184.570312
726,-1.153809,-1.132812,-0.295898,-248.168945,8.056641,137.268066
727,-1.047363,-0.896484,-0.065430,-265.136719,40.771484,95.764160
728,-0.823242,-0.701172,0.052246,-262.512207,44.494629,64.208984
729,-0.509277,-0.604492,0.096680,-225.585938,28.381348,34.362793
730,-0.426758,-0.567871,0.051758,-190.490723,18.310547,28.869629
731,-0.366211,-0.556641,0.019043,-151.428223,9.277344,27.893066
732,-0.354980,-0.559570,-0.037109,-116.149902,2.990723,28.686523
733,-0.396973,-0.557129,-0.110840,-51.818848,3.662109,22.155762
734,-0.374512,-0.541504,-0.098145,-26.000977,3.906250,11.718750
735,-0.328613,-0.512207,-0.094727,-5.432129,2.563477,-0.854492
736,-0.296387,-0.451660,-0.097656,26.672363,-0.366211,-18.920898
737,-0.341797,-0.448242,-0.092773,40.588379,-2.563477,-24.291992
738,-0.451660,-0.491211,-0.061523,53.466797,-8.972168,-38.146973
739,-0.463867,-0.487305,-0.055176,52.001953,-15.014648,-46.813965
740,-0.465820,-0.456055,-0.063965,45.593262,-22.827148,-54.260254
741,-0.469238,-0.429199,-0.102051,34.240723,-30.273438,-58.593750
742,-0.495605,-0.484863,-0.236328,5.371094,-36.621094,-62.988281
743,-0.500488,-0.543457,-0.310059,-6.896973,-34.362793,-68.542480
744,-0.506836,-0.620117,-0.392090,-13.977051,-28.564453,-77.148438
745,-0.517578,-0.770508,-0.577637,-2.014160,-6.103516,-98.693848
746,-0.524902,-0.792480,-0.530762,12.756348,9.216309,-107.666016
747,-0.544434,-0.826660,-0.506836,29.174805,23.742676,-113.769531
748,-0.525391,-0.867188,-0.275879,62.988281,47.790527,-118.774414
749,-0.509277,-0.880371,-0.161133,72.143555,52.612305,-116.455078
750,-0.457520,-0.915039,-0.038086,78.430176,51.330566,-108.886719
751,-0.351562,-0.961426,0.126465,79.284668,35.217285,-79.284668
752,-0.385742,-0.938477,0.174805,75.744629,30.029297,-67.077637
753,-0.413574,-0.804688,0.209473,36.560059,37.658691,-50.048828
754,-0.434082,-0.812012,0.197266,14.831543,39.123535,-45.043945
755,-0.452148,-0.837402,0.174805,0.915527,33.325195,-46.264648
756,-0.465332,-0.841797,0.128418,-4.150391,22.583008,-50.537109
757,-0.504395,-0.798828,-0.112305,5.371094,16.174316,-54.138184
758,-0.570801,-0.794922,-0.251953,16.906738,32.043457,-46.569824
759,-0.661621,-0.828613,-0.337402,30.212402,58.288574,-33.569336
760,-0.878906,-0.994141,-0.204590,55.603027,107.360840,-16.357422
761,-0.880859,-1.042969,0.020020,53.894043,106.994629,-23.986816
762,-0.771973,-1.034180,0.181641,50.476074,83.312988,-29.479980
763,-0.550293,-1.086914,0.171387,80.078125,12.634277,-29.479980
764,-0.445801,-1.098145,0.220215,94.360352,-18.859863,-32.897949
765,-0.326660,-1.108887,0.199707,92.712402,-43.212891,-40.100098
766,-0.231445,-1.112305,0.173340,81.604004,-54.992676,-44.677734
767,-0.150391,-1.278320,0.127930,50.292969,-56.640625,-44.433594
768,-0.164551,-1.370117,0.111328,43.212891,-52.124023,-44.067383
769,-0.242676,-1.459473,0.145508,38.940430,-41.625977,-31.738281
770,-0.269531,-1.416504,0.191895,26.306152,-38.146973,-23.559570
771,-0.309082,-1.289062,0.278320,-0.671387,-38.391113,-22.705078
772,-0.160645,-0.797363,0.137695,-76.599121,-49.072266,-20.385742
773,-0.100098,-0.705566,-0.037109,-89.721680,-42.602539,-11.901855
774,-0.073242,-0.658691,-0.095703,-86.730957,-31.005859,-6.835938
775,-0.035156,-0.579102,-0.120605,-76.965332,-21.484375,-0.549316
776,-0.084961,-0.653320,-0.191406,-36.315918,-10.253906,15.319824
777,-0.142578,-0.724609,-0.206055,-10.131836,-7.568359,20.690918
778,-0.298828,-0.854980,-0.144531,20.080566,-7.324219,42.663574
779,-0.346191,-0.876953,-0.116211,16.418457,-8.300781,48.950195
780,-0.357910,-0.868164,-0.113281,3.356934,-9.399414,49.804688
781,-0.312988,-0.806641,-0.205078,-25.695801,-10.742188,39.978027
782,-0.291504,-0.760254,-0.244141,-32.470703,-11.962891,34.729004
783,-0.288574,-0.726562,-0.261719,-33.752441,-15.441895,30.517578
784,-0.237305,-0.720215,-0.356445,-26.672363,-24.047852,25.390625
785,-0.221191,-0.738770,-0.398438,-17.822266,-16.052246,26.794434
786,-0.250488,-0.769531,-0.402832,-10.742188,3.356934,27.343750
787,-0.308594,-0.744629,-0.250488,-4.943848,51.696777,23.071289
788,-0.316406,-0.731934,-0.121094,-8.117676,64.880371,21.606445
789,-0.300781,-0.722168,-0.000488,-18.005371,67.260742,20.996094
790,-0.284180,-0.735352,0.085449,-32.958984,59.509277,21.789551
791,-0.245605,-0.770020,0.144043,-61.828613,26.855469,25.024414
792,-0.244141,-0.797852,0.174805,-74.035645,8.422852,27.648926
793,-0.255859,-0.865723,0.215820,-96.984863,-28.625488,27.709961
794,-0.280273,-0.915527,0.195312,-106.140137,-44.128418,29.296875
795,-0.333496,-1.014648,0.125488,-109.252930,-54.321289,33.264160
796,-0.398438,-1.139160,0.028809,-101.135254,-56.579590,37.780762
797,-0.492676,-1.336426,-0.039551,-61.401367,-38.818359,41.320801
798,-0.501465,-1.295410,0.029785,-44.067383,-26.367188,39.245605
799,-0.517090,-1.198242,0.122559,-32.775879,-20.324707,39.611816
800,-0.538086,-1.134277,0.263672,-29.357910,-27.893066,41.320801
801,-0.610840,-1.208008,0.334961,-41.748047,-97.412109,49.072266
802,-0.588379,-1.287598,0.232910,-49.926758,-151.977539,63.476562
803,-0.645996,-1.458008,-0.027344,-51.025391,-201.843262,89.233398
804,-0.797363,-1.620117,-0.314453,-46.875000,-221.679688,110.229492
805,-1.183105,-1.552246,-0.764160,-76.171875,-144.958496,126.892090
806,-1.315918,-1.247559,-0.848633,-94.055176,-54.504395,130.493164
807,-1.335938,-1.027832,-0.606445,-109.497070,31.799316,122.497559
808,-0.781250,-0.668457,-0.104492,-156.921387,95.092773,65.979004
809,-0.527344,-0.562012,-0.106445,-164.245605,87.280273,44.738770
810,-0.380371,-0.461426,-0.173340,-154.663086,74.890137,28.076172
811,-0.195312,-0.393066,-0.291504,-98.266602,64.392090,6.591797
812,-0.142090,-0.376465,-0.235352,-59.753418,61.035156,-6.347656
813,-0.122070,-0.354492,-0.158203,-22.705078,50.598145,-18.493652
814,-0.129395,-0.340332,-0.070801,11.718750,33.630371,-28.869629
815,-0.309082,-0.367188,-0.042969,66.650391,1.647949,-52.856445
816,-0.364258,-0.348633,-0.059082,87.402344,-4.516602,-63.659668
817,-0.407715,-0.368652,-0.126465,118.469238,-12.939453,-83.068848
818,-0.417969,-0.410156,-0.175293,127.014160,-13.061523,-94.116211
819,-0.445312,-0.487793,-0.222168,131.958008,-9.094238,-108.032227
820,-0.472168,-0.578125,-0.266602,133.972168,-1.464844,-125.244141
821,-0.407715,-0.715332,-0.398926,132.568359,33.508301,-138.061523
822,-0.324219,-0.800293,-0.445801,122.558594,65.673828,-116.455078
823,-0.321777,-0.931152,-0.463867,114.318848,96.130371,-84.899902
824,-0.397949,-0.928223,-0.181152,96.191406,121.337891,-36.621094
825,-0.360840,-0.851074,-0.076172,65.673828,103.881836,-27.221680
826,-0.299805,-0.752930,-0.086426,33.325195,73.547363,-26.428223
827,-0.137207,-0.576172,-0.470215,-8.422852,43.395996,-25.451660
828,-0.205566,-0.553223,-0.372070,1.220703,58.776855,-14.526367
829,-0.316895,-0.683594,-0.144043,13.244629,67.138672,-10.742188
830,-0.380859,-0.961914,0.229004,20.019531,32.409668,-14.404297
831,-0.446289,-1.184082,0.265625,17.272949,-0.976562,-16.784668
832,-0.617188,-1.691895,-0.093750,34.179688,-32.714844,-31.982422
833,-0.698730,-1.934570,-0.364746,61.340332,-8.178711,-33.020020
834,-0.771484,-2.145508,-0.513184,88.745117,49.560547,-33.142090
835,-0.737793,-2.125977,-0.414551,105.224609,120.483398,-33.264160
836,-0.630371,-1.796875,-0.092773,112.243652,160.644531,-39.672852
837,-0.506836,-0.908691,0.310547,76.965332,113.769531,-44.006348
838,-0.438965,-0.711914,0.283203,33.203125,67.382812,-47.851562
839,-0.324219,-0.638672,0.066406,-4.577637,26.184082,-56.579590
840,-0.078125,-0.536621,-0.256348,-17.028809,-13.610840,-45.715332
841,-0.044434,-0.523926,-0.288086,-17.456055,-14.709473,-37.170410
842,-0.059082,-0.496582,-0.241699,-21.545410,-12.207031,-27.282715
843,-0.149414,-0.551270,-0.205566,-26.855469,-13.916016,-15.747070
844,-0.302734,-0.725098,-0.136230,-29.541016,-28.198242,-2.441406
845,-0.336426,-0.780273,-0.066406,-32.287598,-42.724609,3.845215
846,-0.310059,-0.750488,-0.048340,-34.423828,-56.518555,12.451172
847,-0.165527,-0.759277,-0.134766,-22.644043,-59.936523,43.640137
848,-0.120605,-0.814941,-0.136230,-13.122559,-46.752930,53.039551
849,-0.080078,-0.798340,-0.065430,-10.559082,-31.738281,61.401367
850,-0.111816,-0.791992,0.056641,-27.770996,-27.526855,77.819824
851,-0.198730,-0.847168,0.010742,-37.475586,-35.461426,84.106445
852,-0.290039,-0.896973,-0.074707,-37.963867,-45.959473,86.486816
853,-0.442383,-0.999512,-0.197266,-16.174316,-73.852539,74.768066
854,-0.468262,-1.033691,-0.255371,-7.934570,-83.984375,56.823730
855,-0.411621,-1.008301,-0.382812,-11.230469,-83.190918,38.635254
856,-0.317871,-0.886230,-0.502441,-50.598145,-63.659668,21.789551
857,-0.364258,-0.820312,-0.564453,-70.190430,-58.715820,20.202637
858,-0.461914,-0.764160,-0.687012,-78.125000,-45.288086,32.592773
859,-0.631836,-0.758789,-0.395020,-59.692383,11.352539,63.415527
860,-0.658691,-0.836914,-0.195312,-49.865723,21.850586,68.908691
861,-0.667969,-0.922852,-0.060547,-38.940430,17.944336,70.190430
862,-0.777832,-1.147461,0.164551,-18.676758,-16.052246,77.880859
863,-0.864746,-1.378906,0.266113,-2.014160,-43.762207,80.871582
864,-0.878418,-1.621094,0.375488,11.352539,-75.866699,75.500488
865,-0.860352,-1.741699,0.159180,-0.488281,-109.375000,73.242188
866,-0.929688,-1.732422,-0.076660,-39.794922,-82.946777,84.960938
867,-0.960938,-1.714844,-0.207520,-91.491699,-33.203125,86.669922
868,-0.920410,-1.521484,-0.107910,-139.282227,14.953613,78.186035
869,-0.709473,-0.933105,0.068848,-178.771973,53.771973,51.025391
870,-0.565918,-0.663574,-0.038086,-190.063477,62.194824,41.076660
871,-0.432129,-0.496094,-0.188477,-190.734863,61.096191,14.892578
872,-0.376465,-0.444824,-0.318359,-174.499512,50.598145,-2.624512
873,-0.280762,-0.375977,-0.545898,-136.047363,43.212891,-17.944336
874,-0.165039,-0.278320,-0.641113,-6.835938,36.499023,-31.982422
875,-0.159180,-0.277344,-0.515137,53.771973,28.747559,-39.367676
876,-0.166504,-0.279785,-0.344727,91.918945,17.944336,-50.170898
877,-0.143066,-0.270508,-0.247070,109.069824,8.728027,-60.791016
878,-0.098633,-0.285156,-0.120117,124.694824,-8.483887,-76.599121
879,-0.096680,-0.289062,-0.102051,132.080078,-18.310547,-83.740234
880,-0.148926,-0.323242,-0.060547,135.070801,-28.869629,-97.839355
881,-0.182617,-0.391113,-0.074219,125.732422,-27.893066,-108.886719
882,-0.193848,-0.469727,-0.056641,110.534668,-23.437500,-119.934082
883,-0.192871,-0.586914,-0.076660,80.261230,-14.526367,-124.877930
884,-0.167480,-0.976074,-0.230469,53.466797,23.498535,-103.027344
885,-0.188477,-1.135742,-0.188965,39.916992,41.564941,-77.819824
886,-0.304688,-1.304199,-0.223145,23.193359,51.086426,-53.771973
887,-0.666504,-1.265625,-0.470703,9.643555,65.307617,-25.085449
888,-0.758789,-1.144531,-0.439941,35.034180,85.937500,-23.193359
889,-0.701660,-1.001465,-0.257324,57.128906,99.243164,-22.705078
890,-0.628418,-0.978027,-0.081543,67.932129,78.857422,-26.367188
891,-0.615723,-1.046387,-0.094238,82.458496,56.152344,-27.526855
892,-0.554199,-1.081055,-0.048828,93.627930,35.766602,-33.813477
893,-0.529297,-1.000977,-0.058594,81.115723,15.991211,-30.822754
894,-0.584961,-1.069824,-0.028320,71.228027,17.883301,-24.963379
895,-0.585449,-1.074707,0.063477,57.495117,18.371582,-26.062012
896,-0.538086,-1.046387,0.031250,39.916992,23.864746,-27.709961
897,-0.596191,-1.101562,-0.050781,44.616699,29.357910,-31.188965
898,-0.554199,-1.167480,0.011230,39.550781,17.578125,-40.161133
899,-0.382324,-1.188477,-0.043945,25.146484,-5.187988,-51.391602
900,-0.193848,-1.162109,-0.140137,6.896973,-30.883789,-53.771973
901,-0.112305,-1.186523,-0.456543,-15.380859,-27.282715,-45.043945
902,-0.194824,-1.265625,-0.325195,-30.456543,-8.850098,-34.606934
903,-0.282227,-1.585449,-0.232422,-74.035645,-21.484375,-29.052734
904,-0.144043,-1.467285,-0.331055,-76.599121,-22.949219,-34.973145
905,0.115234,-1.041504,-0.233887,-49.987793,4.150391,-31.311035
906,0.145996,-0.841309,-0.113281,-39.672852,11.718750,-27.465820
907,0.143555,-0.664062,-0.004883,-33.142090,13.793945,-17.272949
908,0.020996,-0.520020,0.085938,-19.653320,-4.821777,11.352539
909,-0.059570,-0.464355,0.058594,-7.446289,-20.568848,20.874023
910,-0.114258,-0.416992,0.016113,4.760742,-33.508301,29.235840
911,-0.229004,-0.478516,-0.058594,16.174316,-43.212891,41.320801
912,-0.269043,-0.560547,-0.097168,14.770508,-43.334961,45.776367
913,-0.307129,-0.631836,-0.165527,13.000488,-41.503906,50.231934
914,-0.363281,-0.695312,-0.179199,9.338379,-41.137695,54.138184
915,-0.371582,-0.705566,-0.222168,-4.211426,-44.189453,49.194336
916,-0.356934,-0.663574,-0.305176,-19.531250,-43.151855,42.541504
917,-0.339844,-0.614258,-0.492188,-30.212402,-33.813477,42.175293
918,-0.323242,-0.667969,-0.561035,-28.686523,-31.494141,48.889160
919,-0.307617,-0.733398,-0.636719,-26.550293,-30.395508,55.725098
920,-0.345703,-0.831055,-0.540039,-24.597168,-5.981445,57.617188
921,-0.356445,-0.845703,-0.416504,-40.161133,7.934570,47.302246
922,-0.335449,-0.852539,-0.299316,-64.331055,27.832031,38.208008
923,-0.291992,-1.041016,-0.083008,-103.637695,49.926758,35.888672
924,-0.295410,-1.155762,-0.024414,-101.928711,37.841797,40.954590
925,-0.351074,-1.250488,-0.010254,-84.350586,18.493652,43.701172
926,-0.431641,-1.237793,0.029785,-31.677246,-6.225586,41.625977
927,-0.465820,-1.173828,0.116699,-14.587402,-10.681152,38.757324
928,-0.538086,-1.133789,0.251465,-10.864258,-20.080566,36.865234
929,-0.827637,-1.273926,0.322754,-32.348633,-86.914062,49.743652
930,-0.928711,-1.431152,0.173828,-52.185059,-143.676758,61.157227
931,-0.953613,-1.572266,-0.158203,-71.350098,-193.481445,76.354980
932,-0.978516,-1.740234,-0.545898,-98.449707,-211.242676,93.566895
933,-1.073730,-1.867676,-1.029297,-166.809082,-115.539551,91.064453
934,-1.094727,-1.561035,-0.965820,-173.400879,-32.958984,94.848633
935,-1.009766,-0.987305,-0.352051,-170.959473,72.204590,103.393555
936,-0.853516,-0.790527,-0.159668,-174.743652,76.477051,84.228516
937,-0.687500,-0.597656,-0.130859,-171.203613,61.035156,63.659668
938,-0.368652,-0.392578,-0.411133,-135.620117,27.954102,35.217285
939,-0.215332,-0.343262,-0.525391,-103.027344,23.254395,28.869629
940,-0.122559,-0.310059,-0.497559,-67.077637,24.169922,27.770996
941,-0.115234,-0.345215,-0.352051,-35.888672,23.742676,24.963379
942,-0.092773,-0.394531,-0.119141,5.920410,9.948730,3.845215
943,-0.100586,-0.395020,-0.088867,25.756836,2.502441,-7.019043
944,-0.163086,-0.439453,-0.080078,47.607422,-6.042480,-21.545410
945,-0.245605,-0.408691,-0.132324,85.571289,-20.996094,-52.001953
946,-0.281250,-0.371094,-0.173340,97.473145,-22.338867,-62.561035
947,-0.316895,-0.328125,-0.206543,104.858398,-19.897461,-71.777344
948,-0.381348,-0.304688,-0.267578,112.548828,-13.122559,-91.552734
949,-0.413086,-0.326172,-0.309570,113.647461,-9.948730,-106.445312
950,-0.439453,-0.361328,-0.376465,118.469238,-1.159668,-142.272949
951,-0.510254,-0.543945,-0.580566,126.098633,9.155273,-158.264160
952,-0.490234,-0.676758,-0.718262,136.474609,28.015137,-168.273926
953,-0.420898,-0.808105,-0.817871,140.808105,57.739258,-160.095215
954,-0.296875,-1.162598,-0.696289,135.681152,117.004395,-91.918945
955,-0.301270,-1.192871,-0.437012,108.886719,139.099121,-49.987793
956,-0.370605,-1.175293,-0.159180,62.133789,145.751953,-17.517090
957,-0.377441,-0.897461,-0.043457,8.728027,110.595703,6.652832
958,-0.367676,-0.746094,-0.024414,16.540527,84.838867,8.117676
959,-0.384766,-0.627930,-0.004883,24.841309,62.683105,7.324219
960,-0.507812,-0.604004,-0.008789,30.151367,32.104492,-1.586914
961,-0.564941,-0.696289,-0.010254,24.902344,22.155762,-6.652832
962,-0.593750,-0.861328,-0.033203,19.714355,13.061523,-8.178711
963,-0.612305,-1.199707,0.014160,13.793945,-11.962891,-9.826660
964,-0.604492,-1.378906,0.053223,8.483887,-29.174805,-11.352539
965,-0.549805,-1.468262,0.093262,-1.098633,-45.532227,-16.540527
966,-0.326172,-1.360352,-0.138672,-2.319336,-48.889160,-25.573730
967,-0.210449,-1.187988,-0.184082,11.901855,-36.865234,-31.677246
968,-0.165527,-1.062988,-0.270020,27.404785,-22.460938,-33.447266
969,-0.135254,-1.054688,-0.296875,65.124512,16.174316,-41.015625
970,-0.111328,-1.074707,-0.255859,70.190430,31.616211,-46.264648
971,-0.125000,-1.145508,-0.214355,67.687988,41.809082,-47.058105
972,-0.191406,-1.354980,-0.099609,54.565430,34.912109,-41.870117
973,-0.228516,-1.489258,-0.085449,32.775879,2.197266,-36.682129
974,-0.200195,-1.506348,-0.370605,11.474609,-30.273438,-43.090820
975,-0.093262,-1.140625,-0.778320,41.076660,12.939453,-50.720215
976,-0.094727,-0.956543,-0.423340,38.024902,49.255371,-50.170898
977,-0.102051,-0.821777,-0.161133,6.408691,64.941406,-52.124023
978,-0.063477,-0.648438,-0.061523,-50.048828,55.114746,-47.241211
979,-0.050781,-0.557617,-0.062988,-55.541992,39.245605,-37.597656
980,-0.105957,-0.408203,-0.071777,-33.325195,-6.286621,-2.807617
981,-0.197754,-0.438477,-0.084961,-13.122559,-33.142090,15.930176
982,-0.263672,-0.453125,-0.115723,3.601074,-53.466797,31.738281
983,-0.316895,-0.517578,-0.125000,12.817383,-63.781738,45.288086
984,-0.321289,-0.682129,-0.142090,13.244629,-73.120117,56.152344
985,-0.287598,-0.738770,-0.185547,12.390137,-78.369141,58.532715
986,-0.237793,-0.759766,-0.243652,14.099121,-85.632324,61.645508
987,-0.198242,-0.753418,-0.329590,15.380859,-89.233398,67.504883
988,-0.252930,-0.779785,-0.522461,12.207031,-72.753906,74.340820
989,-0.301270,-0.812500,-0.614258,15.502930,-55.969238,72.570801
990,-0.290039,-0.883789,-0.822266,15.869141,5.737305,62.316895
991,-0.305664,-0.922363,-0.686523,11.108398,44.616699,58.532715
992,-0.348145,-0.972168,-0.475586,-3.845215,68.664551,55.908203
993,-0.367188,-1.013672,-0.361328,-30.761719,82.885742,49.072266
994,-0.306152,-0.927734,-0.178223,-72.570801,91.491699,37.475586
995,-0.288086,-0.875000,-0.077637,-82.153320,83.068848,34.545898
996,-0.326660,-0.848145,0.170898,-86.547852,36.437988,40.710449
997,-0.410156,-0.943359,0.228027,-78.430176,1.953125,41.992188
998,-0.483398,-1.033203,0.230957,-65.124512,-29.968262,40.039062
999,-0.508301,-1.039062,0.147461,-53.100586,-48.034668,37.597656
1000,-0.504395,-1.065430,0.096191,-35.339355,-38.757324,40.527344
1001,-0.528809,-1.160156,0.148926,-26.367188,-29.663086,35.888672
1002,-0.574707,-1.283203,0.264160,-18.493652,-32.958984,30.090332
1003,-0.679688,-1.398438,0.425293,-16.174316,-62.622070,28.381348
1004,-1.012207,-1.648438,-0.018555,-52.490234,-224.121094,66.467285
1005,-0.958008,-1.677246,-0.440430,-61.401367,-264.648438,71.228027
1006,-0.835449,-1.608887,-0.789062,-84.838867,-255.249023,74.768066
1007,-0.809570,-1.186035,-1.579590,-136.108398,-46.813965,93.566895
1008,-0.970215,-0.920898,-1.187012,-133.239746,71.655273,108.154297
1009,-1.016602,-0.905273,-0.624023,-112.060547,119.750977,94.360352
1010,-0.597168,-0.614746,-0.134277,-64.941406,98.571777,32.836914
1011,-0.381836,-0.502930,-0.083008,-37.536621,74.707031,12.023926
1012,-0.150879,-0.406250,-0.086914,18.554688,37.231445,-6.042480
1013,-0.151855,-0.427734,-0.122559,44.616699,28.320312,-14.038086
1014,-0.179688,-0.446289,-0.140137,69.152832,25.390625,-26.184082
1015,-0.184082,-0.437988,-0.099121,85.693359,23.559570,-38.757324
1016,-0.177734,-0.436523,-0.039062,97.900391,16.174316,-54.687500
1017,-0.203613,-0.438965,-0.025879,96.191406,10.620117,-61.035156
1018,-0.236328,-0.449707,-0.036133,91.186523,3.723145,-66.955566
1019,-0.276855,-0.473145,-0.105957,66.955566,-4.333496,-80.444336
1020,-0.294434,-0.496094,-0.155273,46.386719,-0.244141,-88.378906
1021,-0.294434,-0.544434,-0.231934,24.475098,10.314941,-94.970703
1022,-0.259766,-0.696289,-0.447266,9.704590,43.395996,-94.665527
1023,-0.266602,-0.785645,-0.526367,21.789551,63.354492,-79.467773
1024,-0.331543,-0.870605,-0.551270,39.733887,85.510254,-58.959961
1025,-0.499023,-0.987793,-0.428711,64.941406,117.736816,-28.747559
1026,-0.493652,-0.918457,-0.231934,66.101074,116.394043,-19.226074
1027,-0.439453,-0.815430,-0.090820,53.771973,101.196289,-14.953613
1028,-0.352539,-0.704590,-0.082520,24.414062,41.076660,-19.592285
1029,-0.344238,-0.728027,-0.180176,24.230957,19.226074,-20.996094
1030,-0.383301,-0.830566,-0.176270,26.977539,8.972168,-18.493652
1031,-0.425293,-0.962891,-0.164062,26.184082,5.310059,-11.962891
1032,-0.568359,-1.156738,-0.100586,19.714355,4.333496,-0.793457
1033,-0.627930,-1.264648,-0.037598,19.348145,0.915527,-1.098633
1034,-0.624512,-1.422363,0.100586,25.634766,-13.854980,-10.681152
1035,-0.335938,-1.676758,-0.207520,65.673828,-35.583496,-39.245605
1036,-0.227051,-1.664551,-0.368652,93.505859,2.624512,-56.091309
1037,-0.218262,-1.551758,-0.333984,103.881836,56.335449,-65.856934
1038,-0.443848,-1.288086,0.231445,72.204590,96.252441,-68.054199
1039,-0.465332,-1.331055,0.685059,-36.132812,-2.441406,-72.387695
1040,-0.228516,-1.459961,-0.644531,-98.693848,-85.632324,-73.669434
1041,-0.035156,-1.113281,-0.996582,-73.059082,-68.237305,-64.880371
1042,-0.207520,-0.968262,-0.596680,-32.470703,-4.028320,-31.311035
1043,-0.301270,-0.930176,-0.377441,-36.926270,12.634277,-29.541016
1044,-0.178223,-0.770508,-0.369141,-41.320801,24.536133,-12.145996
1045,-0.077148,-0.716309,-0.354492,-20.812988,30.883789,-1.098633
1046,-0.015137,-0.659180,-0.256348,2.685547,34.362793,4.516602
1047,0.017578,-0.602051,-0.187012,20.996094,33.447266,6.347656
1048,0.009277,-0.502441,-0.007324,37.780762,19.042969,13.366699
1049,-0.060059,-0.479004,0.039551,36.621094,2.380371,17.761230
1050,-0.158203,-0.484375,0.036133,45.043945,-50.476074,36.682129
1051,-0.272949,-0.589355,-0.083008,49.072266,-77.331543,48.522949
1052,-0.282227,-0.622070,-0.213867,52.856445,-91.247559,58.959961
1053,-0.262207,-0.603516,-0.307617,52.246094,-88.256836,67.871094
1054,-0.252441,-0.597168,-0.364746,45.349121,-72.692871,73.913574
1055,-0.225098,-0.665039,-0.313965,10.437012,-34.790039,74.645996
1056,-0.256348,-0.718262,-0.266602,-15.808105,-26.428223,76.843262
1057,-0.366699,-0.812988,-0.278320,-42.785645,-22.521973,78.369141
1058,-0.496582,-0.880371,-0.354004,-64.208984,-5.432129,58.166504
1059,-0.468262,-0.863281,-0.328613,-65.185547,1.586914,49.804688
1060,-0.427246,-0.866699,-0.327637,-63.354492,3.662109,39.978027
1061,-0.258789,-0.868652,-0.344238,-65.063477,3.906250,26.794434
1062,-0.175781,-0.912109,-0.354980,-67.443848,2.685547,23.803711
1063,-0.106934,-0.986816,-0.402344,-63.049316,0.732422,24.963379
1064,-0.231445,-1.167480,-0.255371,-41.992188,18.615723,31.799316
1065,-0.406738,-1.241211,-0.095215,-40.588379,20.812988,33.325195
1066,-0.549805,-1.352539,-0.119141,-36.560059,18.981934,33.691406
1067,-0.496582,-1.375488,-0.126953,-31.188965,24.169922,33.203125
1068,-0.466797,-1.394043,-0.101562,-26.428223,28.991699,29.052734
1069,-0.474121,-1.381836,-0.031250,-24.963379,27.954102,20.080566
1070,-0.582031,-1.361328,0.171387,-35.156250,-21.789551,9.948730
1071,-0.649902,-1.413086,0.050293,-36.682129,-79.223633,15.991211
1072,-0.611816,-1.402832,-0.104492,-20.812988,-129.028320,24.780273
1073,-0.615234,-1.142090,-0.073242,-17.517090,-172.546387,57.312012
1074,-0.786621,-1.120605,-0.109375,-28.991699,-169.799805,67.871094
1075,-0.911621,-1.076660,-0.168945,-44.921875,-151.367188,72.875977
1076,-0.955566,-0.845215,-0.314941,-87.402344,-74.768066,79.467773
1077,-1.016113,-0.802246,-0.414062,-110.107422,-40.100098,83.923340
1078,-1.068359,-0.849121,-0.483398,-124.389648,-15.563965,81.726074
1079,-0.780762,-0.765625,-0.611816,-120.483398,16.906738,48.645020
1080,-0.576172,-0.648438,-0.592773,-100.341797,29.418945,34.973145
1081,-0.390137,-0.578125,-0.547363,-76.110840,40.161133,22.460938
1082,-0.172363,-0.487793,-0.354980,-28.442383,49.987793,2.685547
1083,-0.135254,-0.467285,-0.255859,-3.295898,48.583984,-4.943848
1084,-0.127441,-0.448730,-0.162109,21.911621,45.471191,-11.657715
1085,-0.139160,-0.429688,-0.049805,43.579102,41.076660,-18.615723
1086,-0.210449,-0.418945,0.110840,68.237305,25.878906,-35.339355
1087,-0.226074,-0.401855,0.088867,74.707031,18.127441,-45.654297
1088,-0.258301,-0.417480,0.008301,80.566406,14.953613,-56.579590
1089,-0.313965,-0.458008,-0.127930,86.242676,23.193359,-85.205078
1090,-0.316406,-0.491211,-0.210938,82.763672,34.912109,-98.144531
1091,-0.315430,-0.545898,-0.291504,77.453613,51.574707,-107.666016
1092,-0.261719,-0.710938,-0.532227,88.562012,89.111328,-98.999023
1093,-0.254883,-0.813965,-0.553223,112.487793,100.097656,-74.157715
1094,-0.297852,-0.906250,-0.430664,123.474121,100.341797,-46.936035
1095,-0.360840,-0.928223,-0.380371,112.121582,93.994141,-23.437500
1096,-0.394043,-0.911133,-0.315918,53.527832,84.777832,-1.281738
1097,-0.325195,-0.714355,-0.357422,38.818359,87.036133,-2.807617
1098,-0.315918,-0.634277,-0.154297,33.081055,85.937500,-14.587402
1099,-0.348145,-0.611816,-0.120605,27.221680,73.730469,-21.423340
1100,-0.439941,-0.624023,-0.099121,18.310547,56.823730,-23.254395
1101,-0.542969,-0.684570,-0.224121,8.850098,36.193848,-18.371582
1102,-0.614746,-0.827637,-0.154785,5.554199,32.287598,-16.418457
1103,-0.653809,-0.965332,-0.140625,3.906250,23.376465,-18.676758
1104,-0.647461,-1.242676,-0.139160,16.357422,-6.591797,-17.944336
1105,-0.646484,-1.380371,-0.181641,19.042969,-15.502930,-17.211914
1106,-0.628418,-1.486328,-0.245117,18.859863,-13.549805,-15.808105
1107,-0.594727,-1.514648,-0.362793,14.770508,3.540039,-15.930176
1108,-0.436035,-1.229980,-0.521484,23.742676,58.166504,-15.136719
1109,-0.381836,-1.087402,-0.520020,52.124023,79.162598,-14.526367
1110,-0.356934,-0.983398,-0.439941,79.589844,93.200684,-12.817383
1111,-0.351562,-0.923828,-0.320312,92.529297,99.853516,-13.366699
1112,-0.293457,-0.972656,-0.160156,74.157715,82.214355,-10.375977
1113,-0.303223,-1.119141,-0.158203,53.649902,64.392090,-2.685547
1114,-0.351074,-1.454590,-0.235352,24.597168,16.723633,1.281738
1115,-0.310547,-1.524414,-0.286621,11.108398,-8.361816,-3.601074
1116,-0.266602,-1.469727,-0.483887,0.732422,-11.230469,-11.657715
1117,-0.129395,-1.217773,-0.385742,-13.000488,53.466797,-13.061523
1118,-0.094727,-1.091797,-0.180664,-28.320312,77.514648,-7.080078
1119,-0.097656,-0.922852,-0.015137,-40.161133,77.636719,3.112793
1120,-0.200195,-0.695312,0.117188,-41.137695,25.939941,20.019531
1121,-0.225098,-0.578125,0.042480,-38.818359,-1.525879,23.681641
1122,-0.270996,-0.495605,-0.081543,-37.231445,-14.160156,27.404785
1123,-0.374512,-0.444824,-0.221680,-18.432617,-9.094238,33.813477
1124,-0.412109,-0.463379,-0.241211,-4.150391,-3.112793,37.902832
1125,-0.432129,-0.494629,-0.219727,6.591797,3.112793,42.480469
1126,-0.444824,-0.534668,-0.175293,12.634277,7.385254,47.119141
1127,-0.437012,-0.623535,-0.068848,15.136719,4.455566,49.926758
1128,-0.404785,-0.662598,-0.051270,13.610840,-0.427246,48.950195
1129,-0.256348,-0.747070,-0.252930,22.216797,-2.624512,45.166016
1130,-0.186523,-0.795898,-0.388184,41.076660,12.451172,47.851562
1131,-0.200684,-0.949707,-0.543945,65.429688,34.484863,50.659180
1132,-0.240234,-1.104004,-0.793945,110.168457,62.744141,53.222656
1133,-0.299805,-1.083984,-0.123047,109.802246,103.210449,33.813477
1134,-0.261719,-1.023926,-0.040039,55.908203,85.449219,20.141602
1135,-0.206055,-0.934570,-0.153809,13.366699,44.616699,11.962891
1136,-0.307617,-1.000977,-0.447754,-1.831055,2.197266,24.291992
1137,-0.298340,-0.916992,-0.244141,-12.207031,26.245117,22.094727
1138,-0.260742,-0.776855,-0.011230,-38.574219,54.931641,21.850586
1139,-0.190430,-0.673828,0.205078,-80.810547,56.579590,26.123047
1140,-0.179688,-0.668457,0.104004,-66.406250,31.555176,25.146484
1141,-0.296875,-0.773438,-0.033203,-39.184570,15.686035,28.991699
1142,-0.390137,-0.913086,0.004883,-16.906738,1.220703,35.217285
1143,-0.537109,-1.211914,-0.056641,-11.962891,-28.076172,53.649902
1144,-0.617188,-1.331543,-0.145020,-25.390625,-23.132324,61.096191
1145,-0.639160,-1.362305,-0.188965,-54.992676,-10.253906,42.724609
1146,-0.633789,-1.226562,-0.226074,-58.715820,-9.643555,33.447266
1147,-0.663574,-1.096680,-0.327637,-54.565430,-9.155273,32.165527
1148,-0.774414,-0.927734,-0.354492,-22.705078,1.464844,35.400391
1149,-0.895996,-0.975098,-0.268066,-17.333984,-8.117676,38.879395
1150,-1.039062,-1.120117,-0.286621,-22.033691,-23.071289,40.161133
1151,-1.161133,-1.290039,-0.367676,-35.888672,-32.287598,44.189453
1152,-1.158691,-1.314941,-0.354492,-47.790527,-26.123047,49.865723
1153,-1.056152,-1.296875,-0.354492,-62.622070,-16.845703,51.452637
1154,-0.627930,-1.151855,-0.448730,-70.190430,15.319824,62.744141
1155,-0.467285,-0.938965,-0.391602,-72.448730,32.653809,63.232422
1156,-0.424805,-0.781738,-0.306641,-75.622559,42.053223,64.941406
1157,-0.421387,-0.616699,-0.236328,-69.641113,41.320801,65.063477
1158,-0.454590,-0.581543,-0.220215,-59.997559,39.978027,65.124512
1159,-0.482422,-0.496094,-0.141113,-40.832520,45.043945,59.997559
1160,-0.463379,-0.446289,-0.087891,-30.822754,47.668457,53.771973
1161,-0.435059,-0.411621,-0.041992,-18.493652,48.706055,46.081543
1162,-0.410156,-0.400879,-0.002930,-1.281738,45.715332,37.536621
1163,-0.356445,-0.427734,0.027832,37.902832,29.602051,19.958496
1164,-0.327148,-0.453125,0.010742,54.016113,22.094727,12.878418
1165,-0.323730,-0.465820,-0.033691,65.673828,18.310547,4.455566
1166,-0.356934,-0.464355,-0.183105,79.467773,22.827148,-16.601562
1167,-0.389648,-0.485352,-0.302246,85.632324,30.395508,-26.184082
1168,-0.461914,-0.603516,-0.583496,105.895996,54.626465,-45.593262
1169,-0.484375,-0.685059,-0.768066,119.201660,70.922852,-54.870605
1170,-0.504883,-0.760254,-0.964355,129.699707,87.280273,-61.523438
1171,-0.593750,-0.905273,-1.053223,137.390137,112.487793,-56.152344
1172,-0.675293,-0.927734,-0.817871,139.038086,113.464355,-41.442871
1173,-0.732910,-0.950195,-0.588379,135.314941,105.957031,-22.216797
1174,-0.724121,-0.956543,-0.400391,122.497559,96.252441,-7.934570
1175,-0.519043,-0.788086,-0.301758,82.031250,85.998535,-3.662109
1176,-0.480957,-0.725098,-0.262695,63.049316,86.730957,-4.699707
1177,-0.491211,-0.733887,-0.194336,48.950195,84.655762,-6.225586
1178,-0.500488,-0.935059,-0.062012,20.874023,46.569824,-4.821777
1179,-0.482422,-1.020020,-0.143555,4.760742,20.812988,-2.197266
1180,-0.470215,-1.040039,-0.246582,-5.859375,2.014160,-1.159668
1181,-0.460938,-1.020996,-0.302246,-9.704590,-10.437012,-2.563477
1182,-0.400391,-0.980957,-0.368652,-14.160156,-31.799316,-15.502930
1183,-0.304688,-1.002930,-0.517578,-23.864746,-35.644531,-20.996094
1184,-0.200195,-1.185547,-1.028320,-29.846191,-1.342773,-20.568848
1185,-0.273926,-1.171875,-1.072754,-2.990723,36.499023,-16.113281
1186,-0.469727,-1.024902,-0.696777,42.297363,63.842773,-11.108398
1187,-0.624023,-0.867676,-0.275391,70.922852,70.190430,-6.713867
1188,-0.766602,-0.726074,0.019531,67.016602,56.701660,1.586914
1189,-0.768066,-0.692871,-0.030762,60.424805,62.561035,1.037598
1190,-0.748535,-0.643066,-0.026855,60.180664,75.500488,-1.281738
1191,-0.707520,-0.636719,0.037109,73.120117,91.369629,1.220703
1192,-0.667969,-0.633301,0.054688,80.261230,94.482422,1.525879
1193,-0.616699,-0.642090,0.037598,83.557129,98.327637,0.305176
1194,-0.525879,-0.678711,-0.049316,79.528809,114.135742,-6.286621
1195,-0.502930,-0.710938,-0.087891,79.467773,122.985840,-8.850098
1196,-0.515625,-0.742188,-0.091309,84.045410,128.051758,-8.666992
1197,-0.549805,-0.798828,-0.079102,93.872070,126.098633,-2.990723
1198,-0.684082,-0.930664,0.095215,109.069824,100.219727,11.474609
1199,-0.687500,-0.963867,0.220215,95.397949,78.125000,11.657715
1200,-0.614746,-1.050293,0.259277,32.775879,31.433105,6.896973
1201,-0.565918,-1.130371,0.200684,11.962891,12.023926,3.784180
1202,-0.516602,-1.214844,0.103516,0.183105,-3.723145,-0.610352
1203,-0.200195,-1.184570,-0.255371,10.253906,-2.197266,-7.324219
1204,-0.101562,-1.139648,-0.419434,35.522461,23.986816,-2.136230
1205,-0.122070,-1.089844,-0.516113,62.500000,64.270020,0.732422
1206,-0.204590,-0.913574,-0.393555,101.135254,128.051758,-5.065918
1207,-0.232422,-0.863281,-0.269531,108.337402,138.122559,-9.338379
1208,-0.264648,-0.825195,-0.117676,84.167480,127.136230,-10.314941
1209,-0.269531,-0.813965,-0.103516,64.453125,114.440918,-4.211426
1210,-0.289062,-0.807129,-0.117188,48.828125,103.332520,2.502441
1211,-0.326660,-0.794434,-0.119629,41.748047,95.397949,7.385254
1212,-0.417969,-0.772949,-0.061523,35.339355,87.646484,14.038086
1213,-0.436523,-0.781250,-0.047363,31.799316,88.562012,14.587402
1214,-0.455078,-0.821777,0.013184,29.052734,87.524414,17.333984
1215,-0.461914,-0.866699,0.023438,28.869629,83.923340,16.479492
1216,-0.449219,-0.910156,0.007324,31.433105,79.833984,14.709473
1217,-0.430176,-0.913574,-0.035156,38.146973,78.063965,16.357422
1218,-0.393066,-0.956055,-0.043457,48.400879,82.397461,13.000488
1219,-0.359375,-0.956543,-0.060547,51.269531,83.679199,10.070801
1220,-0.335938,-0.982422,-0.087891,56.030273,84.228516,8.361816
1221,-0.300293,-1.021484,-0.085938,63.537598,85.144043,4.089355
1222,-0.275391,-1.012207,-0.045410,61.340332,83.374023,2.014160
1223,-0.213867,-0.867676,0.019043,42.602539,70.861816,11.413574
1224,-0.257324,-0.866699,0.002930,33.142090,61.767578,16.540527
1225,-0.277832,-0.867676,-0.040527,28.015137,54.626465,19.348145
1226,-0.293945,-0.883789,-0.086914,27.648926,52.001953,21.667480
1227,-0.310547,-0.902832,-0.087891,29.479980,52.795410,24.353027
1228,-0.329590,-0.917969,-0.083008,27.221680,52.246094,26.184082
1229,-0.363770,-0.944336,-0.096680,23.986816,51.086426,28.930664
1230,-0.412598,-0.963867,-0.186523,23.498535,52.490234,32.470703
1231,-0.397949,-0.948730,-0.208008,26.611328,54.565430,32.592773
1232,-0.369141,-0.937012,-0.218262,30.090332,57.678223,32.043457
1233,-0.329102,-0.953125,-0.176758,30.761719,65.124512,29.296875
1234,-0.322754,-0.986328,-0.140625,27.160645,66.650391,27.038574
1235,-0.317871,-1.029297,-0.111328,22.705078,65.734863,24.719238
1236,-0.310059,-1.105469,-0.120605,19.348145,61.096191,21.118164
1237,-0.308594,-1.101562,-0.153320,21.057129,62.133789,19.836426
1238,-0.311523,-1.065918,-0.176270,28.930664,71.289062,19.958496
1239,-0.347168,-0.993652,-0.198242,32.714844,76.599121,19.775391
1240,-0.360840,-0.958984,-0.177246,34.179688,80.688477,19.958496
1241,-0.379395,-0.932617,-0.150879,32.226562,82.519531,21.362305
1242,-0.400879,-0.914551,-0.133789,27.465820,81.665039,23.315430
1243,-0.427246,-0.902832,-0.132812,15.136719,75.805664,26.916504
1244,-0.422852,-0.887207,-0.139160,8.605957,73.242188,29.785156
1245,-0.441895,-0.930664,-0.093262,-4.089355,67.321777,37.414551
1246,-0.466309,-0.973633,-0.054688,-11.718750,60.546875,40.527344
1247,-0.503906,-1.039551,-0.034668,-19.042969,53.283691,44.128418
1248,-0.623047,-1.139648,-0.000488,-29.235840,42.480469,49.621582
1249,-0.682129,-1.146484,0.009277,-31.188965,40.161133,50.415039
1250,-0.715820,-1.113770,0.049805,-29.418945,38.269043,50.048828
1251,-0.704102,-1.015625,0.129883,-26.733398,32.348633,47.668457
1252,-0.619629,-0.747559,0.195312,-26.489258,12.084961,42.114258
1253,-0.562500,-0.643066,0.177246,-28.381348,7.690430,37.902832
1254,-0.441406,-0.497070,0.132324,-22.094727,9.216309,29.724121
1255,-0.415039,-0.467773,0.125488,-10.009766,11.657715,27.160645
1256,-0.413574,-0.469238,0.155273,5.126953,11.901855,24.902344
1257,-0.548340,-0.605957,0.211426,34.240723,2.990723,23.803711
1258,-0.692383,-0.720215,0.351562,24.475098,-31.921387,34.362793
1259,-0.793945,-0.919434,0.194336,1.586914,-91.186523,53.894043
1260,-0.843750,-1.052246,-0.257324,-26.000977,-114.318848,60.058594
1261,-0.710938,-0.843750,-0.687988,-85.449219,-58.776855,73.730469
1262,-0.719238,-0.870117,-0.781738,-113.647461,-13.122559,84.533691
1263,-0.749512,-0.863770,-0.572754,-95.764160,53.222656,80.200195
1264,-0.736816,-0.877441,-0.361328,-72.082520,67.626953,70.678711
1265,-0.692871,-0.863770,-0.192871,-50.720215,70.129395,57.861328
1266,-0.588867,-0.785645,-0.029297,-16.784668,61.523438,42.175293
1267,-0.565918,-0.656738,-0.023926,-5.859375,59.082031,40.832520
1268,-0.593262,-0.586426,-0.034180,-2.929688,61.889648,45.959473
1269,-0.677734,-0.570801,-0.139160,7.812500,70.617676,50.231934
1270,-0.683594,-0.572266,-0.132812,22.094727,67.565918,48.828125
1271,-0.657227,-0.549805,-0.126953,34.667969,59.814453,44.921875
1272,-0.629395,-0.540527,-0.135254,41.137695,52.551270,40.527344
1273,-0.543457,-0.510254,-0.174316,29.541016,43.334961,26.916504
1274,-0.504883,-0.493164,-0.220703,20.141602,43.090820,20.141602
1275,-0.480957,-0.491211,-0.277344,14.709473,44.799805,13.366699
1276,-0.451172,-0.550781,-0.361816,24.230957,53.771973,-0.183105
1277,-0.431641,-0.577148,-0.375977,36.560059,59.875488,-9.521484
1278,-0.403320,-0.604004,-0.349609,64.758301,66.589355,-29.541016
1279,-0.419434,-0.606934,-0.352051,76.049805,67.504883,-37.353516
1280,-0.467285,-0.656738,-0.382812,83.984375,68.054199,-43.701172
1281,-0.632812,-0.757324,-0.548340,100.341797,71.105957,-50.292969
1282,-0.730957,-0.789062,-0.631348,104.248047,76.049805,-49.194336
1283,-0.791992,-0.836914,-0.708008,99.731445,83.557129,-46.997070
1284,-0.764160,-0.904297,-0.638672,73.852539,89.233398,-36.193848
1285,-0.606934,-0.821777,-0.444824,11.596680,49.560547,-9.094238
1286,-0.541504,-0.724609,-0.377930,-2.258301,42.114258,-7.751465
1287,-0.507324,-0.687500,-0.322266,-12.695312,39.123535,-8.483887
1288,-0.475586,-0.698242,-0.209961,-22.216797,41.625977,-13.244629
1289,-0.500977,-0.721191,-0.169434,-21.240234,40.649414,-12.695312
1290,-0.554688,-0.788086,-0.144531,-17.150879,34.545898,-7.751465
1291,-0.617676,-0.886719,-0.143555,-11.230469,22.216797,0.244141
1292,-0.771973,-1.077637,-0.282715,14.221191,3.967285,19.531250
1293,-0.780273,-1.059570,-0.285156,31.494141,5.554199,22.583008
1294,-0.794434,-0.814453,-0.196289,42.053223,7.995605,25.939941
1295,-0.814941,-0.662598,-0.177246,38.024902,6.347656,23.986816
1296,-0.800293,-0.479980,-0.190918,35.949707,8.850098,17.822266
1297,-0.796875,-0.320801,-0.220703,36.804199,19.470215,-0.610352
1298,-0.711426,-0.410156,-0.305176,42.053223,27.221680,-7.385254
1299,-0.686035,-0.547363,-0.313965,49.194336,37.109375,-12.268066
1300,-0.667480,-0.654297,-0.290527,68.786621,64.208984,-16.906738
1301,-0.691406,-0.733887,-0.239258,88.562012,78.613281,-16.052246
1302,-0.688477,-0.833496,-0.157715,111.328125,88.684082,-17.578125
1303,-0.645508,-0.905273,-0.082031,142.517090,102.478027,-27.099609
1304,-0.517090,-0.901855,0.089355,142.517090,111.206055,-27.526855
1305,-0.494141,-0.870605,0.179199,129.333496,117.980957,-23.742676
1306,-0.497559,-0.873535,0.260254,107.482910,120.422363,-19.409180
1307,-0.448730,-0.894043,0.280273,66.284180,105.834961,-14.770508
1308,-0.409180,-0.930176,0.235840,57.922363,92.529297,-10.681152
1309,-0.393066,-0.971680,0.192383,59.631348,77.270508,-7.568359
1310,-0.375000,-1.032715,0.129883,70.861816,49.621582,-6.713867
1311,-0.374512,-1.051270,0.142090,70.678711,39.306641,-6.103516
1312,-0.385742,-1.088379,0.125000,61.157227,31.127930,-7.629395
1313,-0.365723,-1.175293,-0.072754,41.870117,23.803711,-13.977051
1314,-0.323730,-1.148926,-0.220215,43.273926,32.714844,-15.075684
1315,-0.317871,-1.102539,-0.303223,48.217773,46.813965,-14.709473
1316,-0.317871,-1.008789,-0.437012,65.734863,75.561523,-16.174316
1317,-0.315430,-0.977051,-0.439453,74.645996,89.294434,-20.141602
1318,-0.295898,-0.907227,-0.387207,78.186035,100.097656,-22.827148
1319,-0.343750,-0.857422,-0.201172,67.993164,103.576660,-23.864746
1320,-0.348145,-0.852539,-0.135254,59.753418,97.717285,-22.277832
1321,-0.352539,-0.849609,-0.089355,51.574707,91.674805,-20.812988
1322,-0.345703,-0.815918,-0.025879,38.696289,85.144043,-17.395020
1323,-0.353027,-0.811035,-0.019043,34.362793,82.397461,-15.136719
1324,-0.369629,-0.811523,-0.055176,28.625488,80.139160,-10.009766
1325,-0.407227,-0.828125,-0.076660,27.099609,81.970215,-6.530762
1326,-0.443359,-0.855957,-0.087402,25.085449,84.167480,-4.760742
1327,-0.475586,-0.876465,-0.102051,24.291992,86.853027,-4.699707
1328,-0.457520,-0.834473,-0.049805,27.526855,82.031250,-4.882812
1329,-0.387695,-0.787598,-0.011719,27.587891,70.007324,-2.563477
1330,-0.301758,-0.766113,-0.012207,26.977539,54.504395,1.770020
1331,-0.186523,-0.862305,-0.086914,31.860352,29.174805,11.779785
1332,-0.174805,-0.942383,-0.137695,34.545898,24.963379,14.648438
1333,-0.175293,-1.006348,-0.175293,37.292480,26.245117,16.601562
1334,-0.190430,-1.053711,-0.205078,37.658691,33.447266,16.967773
1335,-0.212891,-1.067383,-0.232910,35.644531,37.536621,15.869141
1336,-0.235840,-1.076172,-0.259766,33.325195,42.236328,14.221191
1337,-0.259277,-1.071777,-0.276367,30.944824,47.180176,13.122559
1338,-0.301758,-1.035645,-0.263672,24.414062,51.696777,15.563965
1339,-0.323242,-1.011719,-0.272949,20.935059,50.903320,18.188477
1340,-0.342285,-0.966309,-0.280762,16.723633,52.001953,20.507812
1341,-0.382324,-0.849121,-0.267578,2.380371,59.692383,24.841309
1342,-0.404785,-0.830078,-0.225098,-9.094238,63.476562,26.184082
1343,-0.409180,-0.842285,-0.155273,-23.437500,64.208984,25.817871
1344,-0.402344,-0.895020,-0.101562,-37.048340,59.997559,25.512695
1345,-0.422363,-1.069824,-0.065430,-48.095703,39.611816,26.977539
1346,-0.446777,-1.162109,-0.102051,-47.912598,32.409668,29.052734
1347,-0.472168,-1.248047,-0.161133,-41.992188,31.677246,31.738281
1348,-0.591797,-1.311035,-0.117676,-13.793945,38.635254,35.156250
1349,-0.641113,-1.232422,0.062500,-7.141113,39.001465,29.968262
1350,-0.627441,-1.046875,0.264648,-14.526367,28.869629,24.230957
1351,-0.516113,-0.746094,0.363281,-41.625977,-12.756348,21.789551
1352,-0.467285,-0.677246,0.224609,-48.156738,-24.353027,23.803711
1353,-0.442871,-0.643555,0.114746,-47.119141,-22.277832,24.047852
1354,-0.440430,-0.615723,0.071777,-43.029785,-14.160156,23.437500
1355,-0.558594,-0.620117,0.121094,-27.526855,-4.211426,26.062012
1356,-0.680176,-0.691406,0.156250,-21.240234,-15.441895,33.630371
1357,-0.825195,-0.798340,0.136719,-21.118164,-58.715820,41.992188
1358,-0.830078,-0.813965,0.087891,-35.827637,-84.045410,43.457031
1359,-0.818359,-0.820312,-0.106445,-56.945801,-102.478027,47.424316
1360,-0.691895,-0.861816,-0.503418,-111.633301,-95.214844,58.898926
1361,-0.642090,-0.978027,-0.681152,-137.634277,-71.166992,64.575195
1362,-0.604980,-1.002441,-0.761230,-162.597656,-39.184570,65.979004
1363,-0.524414,-0.836914,-0.364258,-138.000488,-2.075195,63.720703
1364,-0.483887,-0.773926,-0.231934,-117.309570,2.014160,57.861328
1365,-0.448730,-0.740234,-0.188965,-93.627930,6.958008,53.955078
1366,-0.415527,-0.729004,-0.176758,-71.899414,17.211914,50.781250
1367,-0.416504,-0.688965,-0.099121,-34.729004,29.418945,48.217773
1368,-0.433594,-0.676270,-0.061035,-13.793945,26.184082,43.457031
1369,-0.427734,-0.651367,-0.058594,2.685547,20.629883,35.888672
1370,-0.421875,-0.616699,-0.067383,4.943848,13.183594,22.460938
1371,-0.464844,-0.606445,-0.104004,-2.624512,10.559082,16.906738
1372,-0.555176,-0.623047,-0.214844,-21.118164,7.019043,4.760742
1373,-0.579102,-0.642090,-0.277344,-25.939941,5.004883,-1.464844
1374,-0.583496,-0.644531,-0.319824,-25.817871,3.234863,-6.958008
1375,-0.588867,-0.623535,-0.342773,-20.202637,1.220703,-11.352539
1376,-0.569336,-0.577637,-0.360840,-5.493164,1.525879,-18.432617
1377,-0.554688,-0.558594,-0.382324,-1.525879,4.272461,-22.399902
1378,-0.562012,-0.559570,-0.413574,2.014160,7.568359,-26.672363
1379,-0.615723,-0.605469,-0.497559,8.728027,12.695312,-35.156250
1380,-0.631836,-0.644043,-0.565918,15.258789,13.305664,-39.733887
1381,-0.619141,-0.654785,-0.622559,24.414062,14.221191,-44.250488
1382,-0.549316,-0.657227,-0.571777,37.780762,19.958496,-50.537109
1383,-0.496582,-0.656738,-0.491211,40.344238,23.559570,-52.368164
1384,-0.445801,-0.654785,-0.377441,39.550781,27.099609,-52.490234
1385,-0.408203,-0.668457,-0.317383,37.231445,30.639648,-53.161621
1386,-0.336914,-0.675781,-0.266113,32.592773,36.804199,-53.955078
1387,-0.323242,-0.677246,-0.255859,30.212402,39.367676,-53.100586
1388,-0.332520,-0.692383,-0.251953,27.526855,41.809082,-51.696777
1389,-0.386719,-0.715332,-0.213379,21.057129,44.372559,-48.706055
1390,-0.401367,-0.715820,-0.177734,18.798828,41.870117,-47.485352
1391,-0.401855,-0.695801,-0.139648,17.456055,36.682129,-44.738770
1392,-0.407227,-0.666504,-0.112793,14.770508,29.357910,-41.564941
1393,-0.396973,-0.615234,-0.158691,11.657715,19.042969,-36.315918
1394,-0.402832,-0.601074,-0.191895,14.465332,17.944336,-35.156250
1395,-0.405273,-0.599609,-0.212891,21.484375,17.456055,-35.217285
1396,-0.393555,-0.591309,-0.223145,39.428711,16.967773,-35.156250
1397,-0.387695,-0.585938,-0.228027,45.104980,17.517090,-34.545898
1398,-0.382324,-0.579102,-0.229980,48.156738,18.554688,-33.935547
1399,-0.377930,-0.586914,-0.220703,45.043945,22.399902,-32.775879
1400,-0.376953,-0.589355,-0.219238,39.367676,24.963379,-30.944824
1401,-0.386719,-0.606934,-0.226074,31.860352,28.442383,-27.221680
1402,-0.472656,-0.744629,-0.250488,15.808105,38.940430,-16.845703
1403,-0.509277,-0.860840,-0.249023,11.474609,40.100098,-14.282227
1404,-0.519531,-0.993652,-0.270020,12.817383,34.118652,-12.023926
1405,-0.592773,-1.301758,-0.341797,30.029297,22.155762,-12.695312
1406,-0.668457,-1.473633,-0.399414,42.419434,20.385742,-16.967773
1407,-0.688965,-1.569824,-0.418457,54.931641,22.155762,-20.935059
1408,-0.582031,-1.444336,-0.341797,62.255859,22.705078,-20.629883
1409,-0.427734,-1.084473,-0.212891,52.978516,10.925293,-17.700195
1410,-0.389648,-1.009277,-0.141602,43.884277,6.408691,-20.812988
1411,-0.370117,-1.052246,-0.024414,28.015137,-9.704590,-18.432617
1412,-0.281738,-1.455078,-0.417969,-2.136230,-87.036133,-17.456055
1413,-0.233887,-1.365234,-0.504883,12.023926,-82.275391,-22.766113
1414,-0.252930,-1.354004,-0.410645,18.188477,-61.828613,-17.578125
1415,-0.350586,-1.363770,-0.277344,14.160156,-40.954590,-18.920898
1416,-0.357422,-1.218750,-0.178711,10.437012,-18.798828,-23.498535
1417,-0.282715,-1.086426,-0.182129,19.409180,-9.460449,-28.259277
1418,-0.138184,-0.926270,-0.174316,32.775879,14.526367,-24.719238
1419,-0.090332,-0.830566,-0.078613,24.841309,16.662598,-24.780273
1420,-0.077148,-0.776855,-0.068848,13.610840,11.169434,-20.202637
1421,-0.100586,-0.812988,-0.073730,8.972168,5.859375,-15.075684
1422,-0.138672,-0.751953,-0.026367,2.807617,2.197266,-8.911133
1423,-0.206543,-0.728516,-0.009277,0.061035,0.610352,-2.868652
1424,-0.286621,-0.721680,-0.012207,1.159668,-4.089355,4.821777
1425,-0.348145,-0.744141,-0.079590,12.390137,-15.563965,21.789551
1426,-0.328613,-0.747559,-0.117188,15.380859,-15.625000,26.367188
1427,-0.295410,-0.725586,-0.142090,13.732910,-10.192871,25.878906
1428,-0.249512,-0.696777,-0.224609,9.094238,3.845215,18.676758
1429,-0.236328,-0.681641,-0.248535,11.779785,5.187988,18.615723
1430,-0.267578,-0.756836,-0.239746,15.136719,-12.145996,23.071289
1431,-0.287598,-0.813477,-0.292969,17.639160,-30.944824,27.099609
1432,-0.293945,-0.848145,-0.378418,20.202637,-45.959473,30.639648
1433,-0.301270,-0.883301,-0.462402,20.629883,-46.813965,32.775879
1434,-0.269043,-0.886719,-0.409180,-5.859375,-4.821777,25.695801
1435,-0.217773,-0.851074,-0.353516,-24.780273,14.587402,20.568848
1436,-0.192383,-0.844727,-0.299316,-34.973145,21.667480,18.981934
1437,-0.214355,-0.849121,-0.240723,-35.705566,17.578125,20.019531
1438,-0.300293,-0.835449,-0.130859,-21.362305,-0.244141,21.606445
1439,-0.316895,-0.825684,-0.075684,-16.357422,-5.126953,18.432617
1440,-0.295898,-0.811523,-0.053711,-19.409180,-3.723145,14.343262
1441,-0.254395,-0.885254,-0.109863,-32.958984,15.441895,16.235352
1442,-0.294434,-0.902344,-0.096680,-34.179688,14.770508,17.028809
1443,-0.316406,-0.847168,-0.134766,-39.672852,-0.366211,16.662598
1444,-0.297852,-0.874023,-0.440430,-32.653809,-23.071289,26.245117
1445,-0.304199,-0.865234,-0.358887,-34.179688,-13.916016,32.897949
1446,-0.323242,-0.891602,-0.249023,-52.917480,1.037598,36.499023
1447,-0.358398,-0.991211,-0.104980,-89.172363,17.333984,35.034180
1448,-0.404785,-1.028320,-0.110840,-89.721680,9.582520,36.376953
1449,-0.441895,-1.021973,-0.118652,-79.467773,-4.455566,40.588379
1450,-0.561035,-1.055664,-0.099609,-48.583984,-51.635742,56.518555
1451,-0.599609,-1.056152,-0.051270,-39.489746,-80.932617,66.406250
1452,-0.645996,-1.101074,-0.043457,-42.724609,-110.900879,76.782227
1453,-0.711914,-1.193848,-0.091797,-61.035156,-131.530762,84.106445
1454,-0.783203,-1.389160,-0.279785,-114.196777,-119.323730,80.444336
1455,-0.822754,-1.499512,-0.377930,-142.578125,-88.439941,72.509766
1456,-0.824219,-1.427734,-0.559082,-167.236328,-22.949219,56.396484
1457,-0.864746,-1.300781,-0.619141,-150.695801,2.929688,59.020996
1458,-0.892090,-1.145020,-0.600098,-129.943848,24.047852,60.607910
1459,-0.849609,-0.992676,-0.520996,-114.685059,37.719727,54.748535
1460,-0.607422,-0.630371,-0.368164,-95.520020,39.245605,27.221680
1461,-0.476562,-0.476074,-0.356445,-82.397461,32.897949,17.822266
1462,-0.385254,-0.387207,-0.352051,-66.162109,25.878906,13.793945
1463,-0.246094,-0.325684,-0.312988,-28.625488,15.502930,6.469727
1464,-0.173828,-0.308594,-0.250000,-10.803223,10.864258,0.488281
1465,-0.103516,-0.309570,-0.185547,27.038574,5.432129,-15.014648
1466,-0.176758,-0.339844,-0.124512,43.579102,3.540039,-26.000977
1467,-0.279297,-0.393066,-0.096191,60.180664,-2.136230,-39.184570
1468,-0.354004,-0.403320,-0.088867,75.378418,-8.361816,-50.659180
1469,-0.365723,-0.387695,-0.158691,82.458496,-11.108398,-68.847656
1470,-0.327148,-0.400879,-0.270020,80.017090,-8.361816,-76.049805
1471,-0.295898,-0.430664,-0.423828,85.510254,-4.211426,-80.322266
1472,-0.433594,-0.687012,-0.728516,126.892090,10.070801,-91.796875
1473,-0.535156,-0.828613,-0.822754,155.395508,21.362305,-99.060059
1474,-0.580566,-0.937012,-0.808105,171.142578,38.208008,-98.876953
1475,-0.563965,-1.090820,-0.531738,98.571777,93.200684,-63.476562
1476,-0.525391,-1.028320,-0.367676,34.545898,119.934082,-45.227051
1477,-0.442871,-0.842773,-0.242188,-14.709473,128.173828,-24.047852
1478,-0.401367,-0.729980,-0.148438,-27.954102,109.924316,-9.033203
1479,-0.290527,-0.602051,-0.092773,13.732910,41.137695,-5.920410
1480,-0.295898,-0.589844,-0.123047,37.170410,19.042969,-9.643555
1481,-0.381836,-0.589355,-0.191895,53.833008,21.240234,-21.057129
1482,-0.414551,-0.602051,-0.204102,46.081543,33.935547,-24.414062
1483,-0.426270,-0.615234,-0.224609,35.644531,46.081543,-22.644043
1484,-0.440918,-0.668457,-0.223633,27.893066,53.466797,-15.563965
1485,-0.495117,-0.969727,-0.129883,23.742676,41.931152,-5.798340
1486,-0.517578,-1.186523,-0.119629,25.878906,23.376465,-5.249023
1487,-0.671387,-1.628418,-0.172363,42.114258,-16.174316,-13.488770
1488,-0.713867,-1.726562,-0.280762,46.142578,-21.362305,-18.493652
1489,-0.633789,-1.611816,-0.339355,43.640137,-9.948730,-14.404297
1490,-0.489258,-1.256836,-0.265625,58.593750,12.756348,-6.347656
1491,-0.372559,-1.189453,-0.200195,83.435059,9.460449,-13.732910
1492,-0.248047,-1.182617,-0.148926,93.383789,0.122070,-28.686523
1493,-0.144531,-1.184570,-0.163086,96.191406,-5.249023,-42.541504
1494,-0.104980,-1.123535,-0.272949,74.584961,6.774902,-53.833008
1495,-0.128418,-1.053711,-0.306152,51.452637,23.681641,-50.109863
1496,-0.219727,-1.036621,-0.310547,30.578613,38.879395,-47.424316
1497,-0.299805,-0.920898,-0.305176,-1.403809,45.654297,-45.715332
1498,-0.269043,-0.864746,-0.417969,-5.126953,51.940918,-36.315918
1499,-0.263184,-0.848145,-0.347656,4.272461,58.349609,-23.742676
1500,-0.230957,-0.860840,-0.104980,33.630371,44.311523,-5.187988
1501,-0.207520,-0.877930,0.001953,39.550781,30.517578,2.258301
1502,-0.183105,-0.900391,0.086914,34.240723,15.075684,7.812500
1503,-0.146484,-0.900879,0.124023,0.671387,-15.075684,13.427734
1504,-0.136230,-0.838379,0.102051,-12.573242,-28.015137,17.639160
1505,-0.150879,-0.747070,0.083008,-22.888184,-36.987305,20.446777
1506,-0.165527,-0.653809,0.057129,-31.066895,-41.809082,23.803711
1507,-0.238281,-0.604004,0.013672,-40.222168,-48.156738,31.005859
1508,-0.270996,-0.617676,-0.039551,-41.809082,-51.757812,31.127930
1509,-0.283691,-0.622559,-0.109863,-39.245605,-53.527832,29.235840
1510,-0.264648,-0.635254,-0.220215,-26.550293,-49.499512,25.512695
1511,-0.241211,-0.636230,-0.274414,-22.033691,-44.555664,22.155762
1512,-0.211914,-0.626465,-0.352539,-15.747070,-40.588379,19.897461
1513,-0.199707,-0.634766,-0.514648,9.033203,-43.395996,23.437500
1514,-0.204590,-0.681152,-0.628906,28.198242,-52.246094,31.433105
1515,-0.236816,-0.778320,-0.732422,55.603027,-64.331055,44.067383
1516,-0.299805,-0.908203,-0.744141,84.228516,-79.345703,56.152344
1517,-0.263672,-0.999023,-0.582520,93.994141,-56.152344,55.908203
1518,-0.214355,-0.973633,-0.326660,59.936523,-15.380859,41.442871
1519,-0.085938,-0.920410,0.181641,-61.645508,50.292969,14.648438
1520,-0.148926,-0.966309,0.272949,-109.619141,58.105469,8.361816
1521,-0.270020,-0.931152,0.301270,-127.929688,44.677734,3.967285
1522,-0.484375,-0.919434,0.117188,-100.097656,-33.935547,27.465820
1523,-0.608398,-1.144043,-0.122559,-59.265137,-57.617188,39.794922
1524,-0.622559,-1.237305,-0.028809,-28.381348,-61.401367,39.428711
1525,-0.538086,-1.179199,0.135742,-40.405273,-65.917969,30.517578
1526,-0.440918,-1.051758,-0.079102,-112.976074,-63.232422,22.583008
1527,-0.437012,-1.061523,-0.158203,-137.817383,-57.067871,22.155762
1528,-0.513184,-1.199219,-0.324707,-135.803223,-73.181152,24.414062
1529,-0.554199,-1.220703,-0.358398,-117.248535,-92.529297,28.808594
1530,-0.590820,-1.178711,-0.375488,-111.206055,-115.234375,37.414551
1531,-0.672852,-1.153320,-0.500000,-116.760254,-129.516602,51.940918
1532,-0.947754,-1.265137,-0.688965,-109.619141,-93.078613,80.383301
1533,-1.052246,-1.264160,-0.600586,-94.848633,-53.771973,85.021973
1534,-1.110840,-1.219727,-0.436035,-85.510254,-15.747070,84.594727
1535,-1.035156,-1.012695,-0.164062,-94.848633,23.193359,67.321777
1536,-0.914551,-0.891113,-0.189453,-108.032227,26.977539,49.926758
1537,-0.766113,-0.750488,-0.322266,-114.562988,26.733398,31.494141
1538,-0.468262,-0.618164,-0.581055,-82.946777,28.137207,6.347656
1539,-0.379883,-0.611816,-0.594238,-51.269531,26.916504,-0.244141
1540,-0.332520,-0.630371,-0.505371,-22.216797,24.230957,-6.652832
1541,-0.227539,-0.624023,-0.315918,14.099121,18.798828,-19.714355
1542,-0.196777,-0.588379,-0.226562,26.306152,17.944336,-23.742676
1543,-0.196289,-0.545898,-0.134277,36.865234,15.441895,-26.306152
1544,-0.251953,-0.471680,-0.060547,44.189453,13.183594,-33.386230
1545,-0.276855,-0.455078,-0.072754,46.020508,14.099121,-36.315918
1546,-0.299805,-0.449219,-0.099121,50.109863,14.160156,-39.550781
1547,-0.302246,-0.447266,-0.134277,55.175781,13.732910,-44.311523
1548,-0.315430,-0.422852,-0.229004,65.979004,15.808105,-59.020996
1549,-0.336914,-0.417969,-0.277832,71.411133,19.287109,-67.260742
1550,-0.365234,-0.415039,-0.348145,81.970215,32.409668,-79.956055
1551,-0.381348,-0.437500,-0.370605,85.998535,39.550781,-81.909180
1552,-0.399902,-0.487305,-0.400879,91.003418,45.288086,-79.528809
1553,-0.404297,-0.549316,-0.390625,93.566895,50.231934,-72.570801
1554,-0.434082,-0.706543,-0.290527,71.350098,58.593750,-50.354004
1555,-0.452637,-0.776367,-0.238281,48.889160,61.584473,-40.405273
1556,-0.444824,-0.824219,-0.226074,26.000977,62.622070,-34.423828
1557,-0.385742,-0.833008,-0.227539,17.822266,53.161621,-25.573730
1558,-0.354980,-0.807129,-0.204590,24.047852,41.809082,-24.780273
1559,-0.336914,-0.778809,-0.201660,30.639648,32.470703,-23.559570
1560,-0.340332,-0.772949,-0.208496,37.292480,27.893066,-21.301270
1561,-0.345703,-0.792969,-0.195312,54.016113,29.907227,-16.845703
1562,-0.350586,-0.826172,-0.167969,59.143066,33.081055,-14.587402
1563,-0.355957,-0.894043,-0.146484,59.204102,33.325195,-12.268066
1564,-0.356445,-1.138672,-0.182129,59.143066,21.545410,-7.751465
1565,-0.403809,-1.311523,-0.243164,62.500000,14.343262,-4.516602
1566,-0.475098,-1.440430,-0.293457,64.697266,14.953613,-3.601074
1567,-0.694336,-1.599121,-0.328125,62.011719,32.958984,0.000000
1568,-0.773926,-1.553711,-0.294922,63.354492,39.733887,-1.098633
1569,-0.808594,-1.397461,-0.247559,64.331055,36.010742,-2.929688
1570,-0.588379,-1.196777,-0.155273,6.347656,-64.819336,-24.658203
1571,-0.179199,-1.136719,-0.893066,-15.014648,-87.280273,-38.818359
1572,0.040039,-0.968262,-1.023926,-0.671387,-41.870117,-38.818359
1573,-0.107422,-1.050293,-0.665527,4.272461,88.745117,-36.865234
1574,-0.231445,-1.129883,-0.297363,1.342773,110.534668,-41.625977
1575,-0.312988,-1.248047,-0.011719,-12.512207,82.397461,-41.870117
1576,-0.366699,-1.378418,-0.164551,-18.432617,32.165527,-40.710449
1577,-0.309570,-1.301270,-0.241699,12.268066,31.860352,-37.109375
1578,-0.206543,-1.226074,-0.127930,12.573242,44.433594,-33.996582
1579,-0.060059,-0.979492,0.055176,3.173828,48.889160,-27.709961
1580,-0.008789,-0.811035,0.152344,-6.896973,37.902832,-21.118164
1581,0.020020,-0.631348,0.192383,-18.554688,18.981934,-7.812500
1582,-0.136230,-0.470703,0.123047,-34.423828,-22.827148,20.629883
1583,-0.217773,-0.458984,-0.002441,-33.264160,-30.395508,29.235840
1584,-0.283691,-0.477539,-0.066406,-24.841309,-28.808594,38.330078
1585,-0.346191,-0.499023,-0.080566,-11.962891,-24.475098,45.715332
1586,-0.398926,-0.505859,-0.048340,0.122070,-23.742676,51.574707
1587,-0.480469,-0.582031,-0.058594,11.657715,-35.888672,53.405762
1588,-0.469727,-0.635742,-0.118164,11.413574,-41.809082,48.522949
1589,-0.352051,-0.720215,-0.372070,20.935059,-37.048340,39.855957
1590,-0.298340,-0.755859,-0.402832,27.587891,-28.015137,35.339355
1591,-0.226562,-0.794434,-0.459961,29.785156,-20.446777,28.564453
1592,-0.125977,-0.843750,-0.951660,50.537109,-17.944336,23.803711
1593,-0.025391,-0.889648,-0.465820,74.523926,-18.554688,28.930664
1594,-0.045898,-0.905762,-0.431152,29.052734,-11.840820,27.160645
1595,-0.124512,-0.868164,-0.346680,-15.502930,3.540039,25.634766
1596,-0.234863,-0.799316,-0.132812,-77.148438,21.606445,9.460449
1597,-0.251465,-0.778809,-0.049805,-87.829590,17.944336,0.244141
1598,-0.243164,-0.789551,-0.013672,-87.646484,7.995605,-4.577637
1599,-0.228027,-0.834473,-0.026855,-83.557129,-2.807617,-4.882812
1600,-0.240723,-0.932617,-0.215332,-76.843262,-7.446289,3.051758
1601,-0.257812,-0.994141,-0.235840,-75.439453,-8.666992,9.216309
1602,-0.264160,-1.087402,-0.292480,-76.782227,-18.981934,18.798828
1603,-0.500000,-1.301758,-0.324707,-60.729980,-36.682129,36.071777
1604,-0.612305,-1.265625,-0.234375,-67.993164,-34.667969,29.357910
1605,-0.585938,-1.146484,-0.164551,-81.665039,-30.151367,21.545410
1606,-0.503906,-1.059082,-0.138672,-80.444336,-30.639648,21.911621
1607,-0.553223,-1.059082,-0.099609,-72.570801,-37.414551,23.437500
1608,-0.642090,-1.109375,-0.061035,-65.246582,-53.405762,26.794434
1609,-0.684082,-1.184570,-0.092285,-56.457520,-79.650879,29.907227
1610,-0.687988,-1.355469,-0.321289,-20.874023,-131.469727,44.250488
1611,-0.702148,-1.390137,-0.369141,-7.690430,-139.526367,52.551270
1612,-0.813965,-1.317871,-0.469727,-31.799316,-117.309570,78.674316
1613,-0.932617,-1.249023,-0.560059,-53.344727,-84.167480,93.566895
1614,-1.011230,-1.115723,-0.563477,-74.768066,-39.794922,103.210449
1615,-0.852539,-0.854980,-0.208008,-125.427246,19.042969,76.232910
1616,-0.604980,-0.682617,-0.140625,-155.151367,21.667480,49.255371
1617,-0.380859,-0.487793,-0.200195,-168.640137,15.808105,31.433105
1618,-0.267090,-0.440430,-0.366699,-159.423828,10.620117,24.597168
1619,-0.201660,-0.495117,-0.501465,-88.378906,11.474609,9.399414
1620,-0.165527,-0.485352,-0.374512,-49.499512,11.474609,-0.244141
1621,-0.139160,-0.486328,-0.229492,-18.859863,11.108398,-9.277344
1622,-0.181641,-0.495605,-0.036133,28.381348,1.708984,-28.076172
1623,-0.204102,-0.479492,-0.049316,47.607422,-5.737305,-36.926270
1624,-0.195801,-0.453613,-0.120117,64.941406,-9.826660,-43.762207
1625,-0.217773,-0.437500,-0.189453,79.406738,-9.643555,-50.659180
1626,-0.313477,-0.440430,-0.334473,93.444824,-0.671387,-66.101074
1627,-0.371094,-0.480957,-0.405273,99.243164,5.676270,-77.087402
1628,-0.468262,-0.582520,-0.553711,122.985840,17.211914,-105.224609
1629,-0.486328,-0.651855,-0.636719,137.207031,24.902344,-117.919922
1630,-0.498047,-0.718262,-0.678711,147.338867,36.071777,-127.075195
1631,-0.402832,-0.848633,-0.655762,126.037598,73.791504,-113.891602
1632,-0.369141,-0.872559,-0.583984,92.224121,95.031738,-87.646484
1633,-0.362305,-0.855469,-0.515625,50.109863,113.647461,-55.541992
1634,-0.455078,-0.815918,-0.219238,7.690430,113.464355,-9.155273
1635,-0.447754,-0.776367,-0.072754,6.164551,75.988770,-9.460449
1636,-0.357422,-0.740723,-0.087402,14.038086,32.592773,-15.930176
1637,-0.324219,-0.732422,-0.198730,20.141602,12.817383,-24.536133
1638,-0.354004,-0.739746,-0.178711,13.183594,27.526855,-23.132324
1639,-0.395508,-0.788086,-0.146484,6.591797,42.541504,-16.235352
1640,-0.457520,-0.875977,-0.122559,6.042480,50.354004,-7.812500
1641,-0.533203,-1.056152,0.085449,14.221191,28.991699,-3.479004
1642,-0.507812,-1.150391,0.147461,12.451172,-1.770020,-10.742188
1643,-0.439941,-1.248535,0.108398,11.962891,-35.583496,-18.310547
1644,-0.320801,-1.263672,-0.176270,10.131836,-54.931641,-32.409668
1645,-0.292969,-1.212402,-0.397461,13.244629,-27.465820,-26.123047
1646,-0.340820,-1.242188,-0.462891,26.123047,8.361816,-16.845703
1647,-0.404785,-1.241699,-0.391602,65.673828,48.767090,-14.587402
1648,-0.358887,-1.206543,-0.323242,79.650879,53.405762,-15.014648
1649,-0.334961,-1.232910,-0.231934,85.266113,46.691895,-17.517090
1650,-0.312012,-1.301758,-0.217285,81.848145,24.658203,-27.404785
1651,-0.162598,-1.299805,-0.486816,46.813965,-26.855469,-44.067383
1652,-0.172363,-1.180664,-0.555176,31.982422,-12.573242,-43.884277
1653,-0.249023,-1.177734,-0.410645,20.263672,-3.051758,-35.827637
1654,-0.271484,-1.208496,-0.463379,-13.427734,-7.690430,-33.874512
1655,-0.234863,-1.123535,-0.400879,-12.268066,6.103516,-31.066895
1656,-0.139648,-0.931152,-0.146973,-7.690430,24.902344,-26.245117
1657,-0.087402,-0.814453,-0.030762,-10.070801,24.902344,-23.864746
1658,-0.038574,-0.613770,0.103516,-15.869141,3.662109,-10.864258
1659,-0.075195,-0.568848,0.116699,-17.639160,-12.695312,0.915527
1660,-0.144043,-0.553223,0.045898,-15.380859,-26.123047,11.413574
1661,-0.219238,-0.569824,-0.036133,-6.286621,-32.531738,22.216797
1662,-0.326172,-0.660156,-0.090332,17.028809,-30.822754,39.978027
1663,-0.315918,-0.675781,-0.073242,19.958496,-31.311035,44.067383
1664,-0.276855,-0.682129,-0.095215,15.747070,-36.315918,45.654297
1665,-0.180664,-0.694824,-0.298828,13.916016,-58.044434,50.476074
1666,-0.177246,-0.727051,-0.401855,23.498535,-69.702148,52.856445
1667,-0.184570,-0.748047,-0.487305,33.142090,-78.308105,54.138184
1668,-0.197266,-0.873535,-0.951660,105.468750,-60.791016,50.598145
1669,-0.162598,-0.825195,-0.637207,111.755371,-27.770996,46.691895
1670,-0.170898,-0.821289,-0.370605,72.570801,8.605957,43.579102
1671,-0.229004,-0.915527,-0.141113,-35.400391,41.992188,34.423828
1672,-0.242676,-0.972656,-0.169922,-65.551758,35.278320,29.968262
1673,-0.238281,-1.000000,-0.215332,-72.204590,28.625488,25.329590
1674,-0.184082,-0.952148,-0.034180,-58.349609,21.667480,19.836426
1675,-0.186523,-0.913086,0.056152,-59.448242,16.967773,19.775391
1676,-0.218750,-0.862305,0.081055,-76.049805,13.732910,16.723633
1677,-0.241211,-0.829590,-0.103027,-110.229492,13.427734,12.084961
1678,-0.223633,-0.847656,-0.163574,-115.539551,5.798340,10.498047
1679,-0.187988,-0.892578,-0.246094,-110.351562,-15.258789,14.404297
1680,-0.181152,-0.997070,-0.392578,-88.073730,-47.912598,25.390625
1681,-0.490234,-1.280273,-0.306152,-33.386230,-66.528320,39.733887
1682,-0.557129,-1.266602,-0.088379,-51.452637,-49.743652,31.127930
1683,-0.549316,-1.250488,-0.122070,-73.852539,-30.822754,23.620605
1684,-0.496582,-1.286621,-0.147949,-69.091797,3.601074,10.742188
1685,-0.488281,-1.267578,-0.136719,-41.320801,6.042480,5.554199
1686,-0.528320,-1.168945,-0.027832,-5.798340,-6.835938,8.666992
1687,-0.813477,-1.010742,0.150391,21.057129,-99.914551,36.560059
1688,-0.812500,-0.914062,0.045410,9.033203,-142.578125,44.433594
1689,-0.718750,-0.813965,-0.134277,-14.038086,-158.874512,50.048828
1690,-0.679199,-0.809082,-0.320801,-49.255371,-122.314453,63.415527
1691,-0.684570,-0.851074,-0.262207,-62.988281,-94.238281,60.302734
1692,-0.673828,-0.902344,-0.233398,-78.613281,-76.782227,53.833008
1693,-0.720703,-1.000977,-0.288086,-94.787598,-70.800781,50.109863
1694,-1.001465,-1.328613,-0.802734,-116.333008,-67.687988,53.466797
1695,-1.069336,-1.335938,-0.978027,-105.895996,-37.597656,52.612305
1696,-0.796875,-1.028320,-0.484863,-75.500488,25.207520,39.184570
1697,-0.564453,-0.852539,-0.228027,-73.120117,32.897949,31.005859
1698,-0.379883,-0.783203,-0.092285,-69.885254,23.132324,26.245117
1699,-0.130859,-0.679688,-0.083008,-52.368164,-12.084961,18.005371
1700,-0.086914,-0.613281,-0.115234,-40.039062,-24.780273,14.953613
1701,-0.132324,-0.569824,-0.141602,-30.029297,-31.311035,12.451172
1702,-0.229004,-0.556641,-0.164551,-22.766113,-31.066895,7.629395
1703,-0.353027,-0.519531,-0.185059,-6.103516,-23.864746,-5.432129
1704,-0.358887,-0.513184,-0.207520,1.464844,-17.822266,-14.282227
1705,-0.327148,-0.450195,-0.230469,7.995605,-10.559082,-23.437500
1706,-0.337402,-0.377441,-0.269531,23.315430,4.699707,-30.700684
1707,-0.367676,-0.363770,-0.280273,30.517578,8.483887,-34.729004
1708,-0.392090,-0.339844,-0.305664,38.269043,8.300781,-40.527344
1709,-0.436523,-0.348633,-0.427246,61.950684,4.028320,-57.800293
1710,-0.456543,-0.364746,-0.514648,82.275391,4.516602,-69.274902
1711,-0.474121,-0.366211,-0.581055,105.529785,10.620117,-78.857422
1712,-0.554199,-0.473145,-0.618652,136.169434,45.410156,-90.148926
1713,-0.569824,-0.590332,-0.581055,139.709473,69.580078,-92.773438
1714,-0.534668,-0.725586,-0.477051,130.432129,92.895508,-90.759277
1715,-0.348145,-0.993652,-0.197754,76.965332,113.952637,-65.917969
1716,-0.269043,-1.088867,-0.097168,33.752441,103.759766,-54.748535
1717,-0.211914,-1.085449,-0.154785,-4.638672,87.402344,-47.973633
1718,-0.258301,-1.007324,-0.201172,-19.165039,77.148438,-40.039062
1719,-0.410645,-0.826660,-0.038574,-7.995605,62.927246,-32.531738
1720,-0.432617,-0.756836,0.028320,2.868652,53.771973,-26.550293
1721,-0.430176,-0.750000,-0.021484,23.071289,34.423828,-21.789551
1722,-0.393555,-0.798340,-0.047852,30.822754,26.245117,-24.536133
1723,-0.374512,-0.847168,-0.083496,31.799316,20.019531,-26.855469
1724,-0.529297,-1.026367,-0.470703,41.748047,38.452148,-17.517090
1725,-0.674805,-1.158691,-0.635254,60.241699,67.749023,-9.399414
1726,-0.854492,-1.279785,-0.700684,79.406738,100.646973,4.211426
1727,-1.267090,-1.626465,-0.454590,82.641602,147.216797,16.418457
1728,-1.082520,-1.465332,-0.182129,60.424805,132.812500,9.582520
1729,-0.448242,-0.942871,-0.093262,45.959473,39.733887,-4.577637
1730,-0.289062,-0.804688,-0.115723,34.362793,2.197266,-6.652832
1731,-0.114258,-0.753418,-0.254883,-4.455566,-42.480469,-15.014648
1732,-0.115723,-0.713379,-0.307129,-10.437012,-37.963867,-13.061523
1733,-0.177246,-0.819824,-0.224121,-13.549805,-22.827148,-10.986328
1734,-0.213867,-0.966309,-0.103516,-22.033691,-8.850098,-15.686035
1735,-0.180664,-1.309082,-0.054688,-35.888672,-4.882812,-24.353027
1736,-0.135254,-1.468262,-0.124512,-18.249512,-7.324219,-27.404785
1737,-0.087891,-1.562500,-0.082031,5.065918,-9.033203,-29.846191
1738,0.040527,-1.528809,-0.034668,26.733398,-4.394531,-33.569336
1739,0.165039,-1.322754,-0.148438,30.578613,6.713867,-32.836914
1740,0.208496,-1.100586,-0.224609,34.484863,25.634766,-24.047852
1741,-0.018555,-0.857422,-0.208984,36.437988,59.143066,-11.230469
1742,-0.142090,-0.766113,-0.200195,39.306641,64.636230,-6.530762
1743,-0.425293,-0.707520,-0.185059,60.058594,53.710938,3.723145
1744,-0.553223,-0.708496,-0.171875,70.983887,39.733887,7.324219
1745,-0.631348,-0.687012,-0.172852,75.195312,24.230957,11.657715
1746,-0.533203,-0.668457,-0.115723,36.010742,-15.380859,17.883301
1747,-0.351074,-0.659180,-0.271484,12.573242,-37.780762,20.874023
1748,-0.233398,-0.639160,-0.402344,1.281738,-40.527344,22.094727
1749,-0.182129,-0.626953,-0.398438,-5.432129,-27.832031,20.935059
1750,-0.122559,-0.666016,-0.459961,9.521484,2.746582,16.052246
1751,-0.104980,-0.702637,-0.368164,20.812988,13.732910,16.418457
1752,-0.053711,-0.833008,-0.282715,28.930664,18.981934,23.315430
1753,-0.020996,-0.859375,-0.229492,28.259277,22.521973,24.353027
1754,0.014160,-0.851074,-0.163574,21.118164,29.663086,20.446777
1755,0.029785,-0.828613,-0.069824,7.385254,34.057617,13.671875
1756,0.079102,-0.686035,0.068359,-26.367188,24.291992,5.249023
1757,0.051270,-0.646484,0.087402,-37.109375,11.413574,9.704590
1758,-0.121094,-0.688477,0.039062,-47.363281,-13.793945,19.775391
1759,-0.181641,-0.722656,0.034668,-47.485352,-23.986816,21.545410
1760,-0.220703,-0.754883,0.046875,-48.095703,-34.912109,20.996094
1761,-0.289062,-0.845215,-0.044922,-43.029785,-62.744141,19.042969
1762,-0.350586,-0.888184,-0.148926,-32.653809,-74.645996,17.028809
1763,-0.384277,-0.869629,-0.304688,-23.681641,-78.308105,14.160156
1764,-0.377441,-0.873047,-0.628906,-7.568359,-75.988770,19.042969
1765,-0.364746,-1.113770,-1.034180,44.799805,-51.025391,39.794922
1766,-0.324707,-1.168457,-0.906250,21.972656,3.173828,41.137695
1767,-0.380371,-1.206055,-0.580078,-41.076660,65.673828,34.667969
1768,-0.441406,-1.113770,-0.101074,-162.292480,98.205566,18.920898
1769,-0.459961,-1.129883,-0.040527,-183.654785,65.673828,16.418457
1770,-0.523926,-1.214355,-0.257812,-164.184570,15.991211,22.888184
1771,-0.687012,-1.302734,-0.389648,-96.801758,-19.348145,33.447266
1772,-0.661133,-1.058594,0.085938,-12.878418,-66.467285,37.475586
1773,-0.594727,-0.942871,0.149414,-20.568848,-84.594727,37.109375
1774,-0.505371,-0.916016,0.124512,-47.485352,-101.745605,37.780762
1775,-0.555664,-0.956543,0.153809,-50.109863,-111.633301,39.855957
1776,-0.657715,-1.070801,0.198242,-49.255371,-129.760742,44.311523
1777,-0.761719,-1.359863,-0.072754,-54.809570,-171.142578,56.457520
1778,-0.746582,-1.356445,-0.414062,-91.491699,-162.475586,63.171387
1779,-0.718750,-1.312012,-0.930176,-155.761719,-113.281250,74.462891
1780,-0.797852,-1.289062,-1.118164,-231.018066,21.545410,83.618164
1781,-0.948242,-1.195312,-1.040527,-186.279297,46.203613,65.429688
1782,-0.801270,-0.913086,-0.853027,-120.849609,51.330566,40.161133
1783,-0.517090,-0.547852,-0.513184,-39.184570,57.312012,12.023926
1784,-0.408203,-0.577637,-0.413574,-24.169922,68.481445,4.760742
1785,-0.346680,-0.614746,-0.277832,-12.451172,74.462891,-2.502441
1786,-0.289062,-0.611816,-0.161621,-1.037598,71.838379,-8.789062
1787,-0.205566,-0.497559,-0.008301,21.911621,51.086426,-15.930176
1788,-0.193848,-0.453613,0.041992,30.273438,37.536621,-18.554688
1789,-0.176758,-0.390625,0.041504,39.855957,13.122559,-28.625488
1790,-0.153809,-0.354492,0.010742,47.485352,2.502441,-34.362793
1791,-0.111328,-0.309570,-0.041016,56.701660,-5.798340,-40.344238
1792,-0.078613,-0.278320,-0.097168,64.941406,-10.864258,-45.410156
1793,-0.096191,-0.317871,-0.249023,79.101562,-13.671875,-53.649902
1794,-0.133789,-0.359375,-0.334961,88.500977,-11.596680,-57.983398
1795,-0.189941,-0.406250,-0.448730,100.830078,-4.028320,-62.927246
1796,-0.292969,-0.538086,-0.640137,130.004883,40.283203,-68.542480
1797,-0.332031,-0.685059,-0.678223,139.221191,74.279785,-71.655273
1798,-0.368652,-0.916504,-0.372070,126.403809,129.943848,-62.927246
1799,-0.395508,-0.995117,-0.200684,88.928223,126.831055,-51.696777
1800,-0.452637,-1.065430,-0.174316,34.362793,98.571777,-41.442871
1801,-0.431641,-1.115234,-0.662109,-7.263184,58.410645,-28.808594
1802,-0.774414,-1.098633,-0.254395,37.170410,37.902832,-12.573242
1803,-0.678223,-0.881836,-0.079590,10.986328,34.912109,-19.226074
1804,-0.549805,-0.771973,-0.069824,-13.000488,32.714844,-24.536133
1805,-0.388184,-0.695801,-0.186035,-13.854980,21.484375,-27.221680
1806,-0.400391,-0.689941,-0.290527,-1.159668,19.653320,-17.761230
1807,-0.592773,-0.866699,-0.344727,26.977539,35.400391,1.525879
1808,-0.618652,-0.937988,-0.263672,26.184082,41.381836,7.934570
1809,-0.624023,-1.033203,-0.225586,20.324707,38.940430,11.291504
1810,-0.646973,-1.133789,-0.203613,18.493652,27.709961,11.657715
1811,-0.697754,-1.111328,-0.245117,25.146484,-6.774902,5.493164
1812,-0.612793,-0.986328,-0.334961,29.541016,-6.713867,2.807617
1813,-0.492676,-0.895996,-0.394531,52.368164,20.568848,3.417969
1814,-0.284180,-0.932129,-0.358398,74.035645,27.954102,3.173828
1815,-0.211426,-1.004395,-0.408203,104.797363,29.235840,3.479004
1816,-0.183105,-1.041016,-0.383301,125.305176,35.705566,3.723145
1817,-0.164551,-1.085449,-0.461914,131.774902,53.527832,3.967285
1818,-0.165039,-1.285645,-0.458008,149.841309,92.773438,5.798340
1819,-0.096680,-1.417969,-0.334961,157.592773,71.228027,13.000488
1820,-0.219238,-1.461914,-0.215820,125.488281,55.847168,-5.859375
1821,-0.251953,-1.348633,-0.122070,70.861816,75.317383,-18.310547
1822,-0.313477,-1.231445,-0.034180,4.638672,94.604492,-34.179688
1823,-0.248535,-0.889648,-0.010742,-52.795410,101.135254,-44.555664
1824,-0.203613,-0.390625,-0.071777,-76.843262,79.833984,-2.014160
1825,-0.337891,-0.428223,-0.083984,-58.166504,61.401367,17.211914
1826,-0.441406,-0.461426,-0.037109,-35.522461,44.311523,27.404785
1827,-0.633789,-0.566895,0.049805,-26.428223,18.981934,40.405273
1828,-0.653809,-0.593750,-0.005371,-36.254883,11.779785,42.785645
1829,-0.615723,-0.590820,-0.104004,-40.527344,6.164551,46.997070
1830,-0.468750,-0.623535,-0.321777,-21.545410,-3.723145,52.001953
1831,-0.380859,-0.652832,-0.382324,-3.173828,-3.967285,52.368164
1832,-0.283691,-0.687012,-0.581543,20.874023,-2.258301,52.429199
1833,-0.231445,-0.860352,-0.487793,94.177246,21.423340,58.715820
1834,-0.129395,-0.921875,-0.364746,82.458496,35.705566,51.208496
1835,-0.005371,-1.009277,-0.307129,58.593750,43.151855,46.081543
1836,0.137207,-1.104980,-0.343262,10.314941,46.203613,27.221680
1837,0.160156,-1.066895,-0.318848,-4.943848,35.705566,21.484375
