order,ax,ay,az,gx,gy,gz
0,0.512695,0.013184,0.791504,24.902344,-6.591797,34.973145
1,0.436035,-0.042480,0.832520,19.226074,-15.380859,41.809082
2,0.270996,-0.145996,0.814453,-6.530762,-31.372070,50.842285
3,0.183594,-0.246094,0.781250,-13.122559,-33.813477,52.612305
4,0.060059,-0.337402,0.742676,-7.141113,-33.813477,40.161133
5,0.060547,-0.349609,0.657227,-2.075195,-31.005859,32.714844
6,0.088379,-0.311035,0.689941,6.774902,-28.747559,26.794434
7,0.125488,-0.266113,0.724121,6.347656,-23.620605,24.475098
8,0.159180,-0.230469,0.732422,-7.202148,-8.178711,23.071289
9,0.177246,-0.252441,0.724609,-7.934570,-5.249023,22.033691
10,0.216309,-0.275879,0.708008,-12.878418,-5.249023,20.446777
11,0.280762,-0.280273,0.650391,-8.117676,-5.981445,21.423340
12,0.283203,-0.292480,0.609375,-2.685547,-5.126953,20.629883
13,0.290527,-0.288086,0.601074,-0.305176,-1.831055,18.249512
14,0.275879,-0.307617,0.648438,-1.281738,2.807617,17.272949
15,0.228516,-0.381836,0.769043,-9.948730,13.122559,9.033203
16,0.228027,-0.416016,0.827637,-13.183594,11.535645,4.760742
17,0.283691,-0.416992,0.899902,-10.437012,8.300781,1.220703
18,0.418457,-0.403320,0.843750,-10.986328,12.023926,6.286621
19,0.437988,-0.392578,0.879883,-5.432129,22.094727,9.887695
20,0.407227,-0.380371,0.996582,-0.671387,27.465820,13.061523
21,0.340332,-0.408203,1.159180,-1.037598,25.756836,12.695312
22,0.239258,-0.470703,1.247559,-7.446289,10.803223,2.624512
23,0.212402,-0.479004,1.268066,-10.803223,2.380371,-3.784180
24,0.224121,-0.482422,1.237793,-20.507812,-3.051758,-10.620117
25,0.265625,-0.467773,1.156250,-29.907227,-3.601074,-16.845703
26,0.336426,-0.423828,0.999023,-29.785156,-6.652832,-25.817871
27,0.354980,-0.413574,0.916504,-18.005371,-8.361816,-24.169922
28,0.371094,-0.318848,0.955566,12.268066,-0.061035,-12.756348
29,0.324219,-0.299316,1.048828,18.005371,17.089844,-5.493164
30,0.175293,-0.307617,1.138184,14.831543,29.602051,5.981445
31,0.051758,-0.386230,1.230469,9.277344,38.391113,8.789062
32,-0.047363,-0.324707,1.459473,-49.621582,36.010742,-15.319824
33,-0.092773,-0.380859,1.452148,-80.017090,10.620117,-29.785156
34,-0.052734,-0.361328,1.309082,-94.665527,-24.291992,-42.968750
35,0.037598,-0.368164,1.081055,-120.849609,-56.457520,-62.805176
36,0.047363,-0.410156,1.016113,-153.503418,-57.189941,-69.213867
37,0.103516,-0.395996,0.831543,-162.170410,-47.973633,-71.166992
38,0.078125,-0.428711,0.458984,-164.062500,-16.113281,-62.744141
39,0.058594,-0.500977,0.366211,-146.545410,0.305176,-60.302734
40,0.060547,-0.567871,0.329590,-119.873047,22.277832,-61.828613
41,0.102539,-0.507324,0.322754,-89.599609,42.907715,-65.307617
42,0.250000,-0.331543,0.434570,-40.039062,83.190918,-55.969238
43,0.289551,-0.266602,0.629883,-21.850586,89.111328,-44.006348
44,0.306152,-0.308105,0.732422,-14.648438,75.500488,-30.944824
45,0.265137,-0.407227,0.857910,-4.882812,25.634766,-24.841309
46,0.228027,-0.464355,0.814453,-17.517090,7.812500,-33.569336
47,0.166016,-0.490723,0.754883,-44.250488,3.784180,-49.926758
48,0.084961,-0.494141,0.692383,-72.998047,12.329102,-66.101074
49,-0.022461,-0.526855,0.616211,-125.000000,58.593750,-87.463379
50,0.056641,-0.442871,0.469727,-158.203125,94.909668,-94.848633
51,0.161621,-0.317871,0.341797,-176.208496,134.643555,-96.069336
52,0.310059,-0.243652,0.556641,-209.594727,207.580566,-83.435059
53,0.309570,-0.229980,0.619141,-222.167969,240.417480,-80.505371
54,0.314453,-0.225098,0.686523,-242.126465,276.428223,-87.219238
55,0.352051,-0.288574,0.565430,-313.110352,342.529297,-100.585938
56,0.565430,-0.238281,0.715332,-450.256348,442.321777,-75.805664
57,0.577637,-0.366699,0.590332,-463.500977,450.500488,-35.827637
58,0.439453,-0.646484,0.437012,-411.621094,427.917480,-2.990723
59,0.011719,-0.946289,0.560547,-224.792480,322.204590,2.502441
60,-0.106934,-0.932129,0.703125,-166.015625,223.693848,-4.577637
61,-0.160156,-1.125488,0.670410,-114.562988,125.000000,-7.690430
62,-0.285156,-1.346191,-0.055664,-37.780762,48.767090,-25.085449
63,-0.348145,-1.258301,-0.235840,-31.188965,103.393555,-31.921387
64,-0.339355,-1.256348,-0.468750,2.136230,162.170410,-34.606934
65,-0.239258,-1.074219,-0.455566,90.576172,188.354492,-33.630371
66,-0.309570,-0.835938,0.281738,175.964355,193.298340,-19.287109
67,-0.552734,-0.918457,0.318848,211.914062,209.594727,-14.404297
68,-0.895508,-1.076172,0.297852,235.046387,238.647461,-28.076172
69,-0.996094,-0.885742,0.582520,186.828613,283.874512,-120.666504
70,-0.573730,-0.442871,0.620117,185.363770,262.573242,-97.778320
71,-0.383789,-0.485840,0.683594,174.499512,257.202148,-58.227539
72,-0.286621,-0.564453,1.293457,108.581543,225.036621,27.893066
73,-0.480957,-1.007324,1.101562,50.476074,191.833496,49.438477
74,-0.614258,-1.173340,0.905762,16.845703,169.311523,43.945312
75,-0.480957,-0.792480,0.565918,-17.517090,151.245117,36.132812
76,-0.415527,-0.555664,0.653809,-8.361816,144.104004,56.457520
77,-0.533203,-0.492676,0.796387,-41.137695,150.207520,90.332031
78,-0.625488,-0.524414,0.427734,-226.318359,245.483398,125.671387
79,-0.791016,-0.961914,0.052246,-216.674805,276.489258,133.605957
80,-0.928223,-1.075684,0.259277,-127.807617,244.140625,130.798340
81,-0.762207,-0.894043,0.083984,-44.433594,181.152344,117.553711
82,-0.480957,-0.627930,0.011719,34.606934,132.690430,107.604980
83,-0.646484,-0.745605,0.090332,23.498535,132.324219,117.309570
84,-0.820312,-0.979492,0.027344,5.310059,140.930176,119.750977
85,-0.960449,-1.164551,-0.137207,-9.460449,157.409668,115.051270
86,-0.977539,-1.269043,-0.675781,-38.452148,236.755371,105.285645
87,-1.031738,-1.272461,-0.706543,-47.241211,299.072266,91.918945
88,-1.041992,-1.356934,-0.591797,-43.762207,356.262207,70.983887
89,-0.886230,-1.445312,-0.049316,19.042969,401.916504,11.230469
90,-0.918457,-1.502441,0.338379,46.875000,382.751465,-24.108887
91,-0.900879,-1.665527,1.113281,47.180176,337.158203,-81.420898
92,-0.170898,-1.201172,1.344727,91.186523,156.372070,-114.868164
93,0.041992,-1.149414,1.289551,71.472168,115.539551,-122.192383
94,0.231445,-1.229492,1.452148,18.798828,104.431152,-128.417969
95,0.374023,-1.132812,1.706055,-98.510742,16.479492,-126.464844
96,0.349121,-0.995605,1.525879,-140.380859,-46.630859,-123.229980
97,0.152832,-1.037598,1.170410,-147.155762,-106.994629,-125.549316
98,-0.273926,-0.674805,0.513672,-138.793945,-145.446777,-138.488770
99,-0.401367,-0.262695,0.606934,-134.887695,-161.804199,-132.812500
100,-0.640137,-0.076660,0.183105,-115.661621,-178.283691,-99.060059
101,-0.386230,-0.370605,-0.498535,-87.158203,-140.686035,-56.701660
102,-0.612305,-0.494629,-0.457520,-56.396484,-85.144043,-27.282715
103,-0.890137,-0.676270,-0.592285,5.004883,-73.669434,-0.488281
104,-1.037598,-1.190918,-0.366211,77.880859,-53.161621,-3.234863
105,-0.915527,-1.216309,0.048340,81.909180,-35.339355,-26.916504
106,-0.792480,-1.189453,0.164551,74.462891,-20.324707,-33.996582
107,-0.762695,-1.078613,0.252441,30.761719,-20.324707,-28.198242
108,-0.718750,-0.997559,-0.097168,36.865234,-23.010254,-36.376953
109,-0.666016,-0.925293,-0.328613,48.828125,-19.531250,-49.987793
110,-0.591797,-0.936035,-0.355469,60.668945,-5.493164,-51.513672
111,-0.431152,-1.264160,-0.050293,92.590332,-6.713867,-16.967773
112,-0.312012,-1.378418,-0.057129,93.078613,-19.836426,-7.202148
113,-0.274902,-1.443848,-0.192383,84.472656,-27.832031,-1.281738
114,-0.649414,-1.316406,-0.480957,42.297363,-8.544922,-15.380859
115,-0.673340,-1.152344,-0.536133,15.869141,-3.784180,-10.925293
116,-0.759766,-1.097168,-0.835938,21.728516,10.253906,-14.160156
117,-0.625000,-0.854004,-0.540527,19.042969,27.465820,-14.343262
118,-0.614746,-0.754883,-0.249512,2.075195,39.123535,11.657715
119,-0.684082,-0.928223,-0.143555,12.512207,45.349121,1.342773
120,-0.562012,-0.843262,0.134277,33.142090,36.865234,-19.348145
121,-0.550781,-0.468750,0.202148,29.602051,12.634277,-9.338379
122,-0.566406,-0.356934,0.105469,27.648926,-1.220703,7.568359
123,-0.815430,-0.488770,-0.088867,55.603027,-15.136719,21.240234
124,-0.813477,-0.607422,-0.212891,23.681641,9.643555,44.311523
125,-0.664551,-0.645996,-0.035156,17.944336,19.042969,48.828125
126,-0.494629,-0.481445,0.059082,24.475098,20.324707,55.541992
127,-0.403320,-0.065430,-0.069824,64.208984,18.920898,98.022461
128,-0.349609,0.593262,-0.282227,102.905273,26.489258,141.662598
129,-0.660156,0.703125,-0.580078,139.465332,58.898926,192.993164
130,-1.205566,-0.408691,-0.017578,248.046875,122.924805,181.823730
131,-0.824219,-0.611328,-0.173340,244.812012,167.846680,136.596680
132,-0.703613,-0.848633,-0.115723,267.639160,221.740723,94.726562
133,-0.622559,-1.007324,0.732422,259.521484,228.698730,58.471680
134,-0.482910,-1.245117,0.828613,176.330566,113.403320,78.674316
135,-0.582031,-1.571289,0.851562,107.543945,83.984375,81.298828
136,-0.646973,-1.754395,0.945801,24.597168,75.683594,66.589355
137,-0.544922,-1.790527,0.901367,-95.642090,61.279297,1.647949
138,-0.583984,-1.705566,0.834961,-120.239258,51.025391,-27.038574
139,-0.662109,-1.645996,0.853516,-141.967773,34.790039,-52.795410
140,-0.588867,-1.537109,0.744629,-176.513672,18.310547,-75.378418
141,-0.383789,-1.281738,0.443359,-297.363281,3.051758,-109.252930
142,-0.159180,-0.919922,0.328125,-351.013184,2.685547,-99.731445
143,-0.301270,-0.686035,0.118164,-375.976562,8.544922,-77.941895
144,-0.626953,0.067383,-0.056152,-261.230469,-4.577637,16.723633
145,-0.748535,-0.023438,-0.093262,-167.785645,-13.732910,61.096191
146,-0.914062,-0.352539,-0.042480,-106.445312,-9.948730,75.866699
147,-0.876953,-0.554199,0.063477,-90.515137,-4.028320,76.721191
148,-0.903809,-0.946289,0.072266,-103.820801,2.624512,55.114746
149,-0.838379,-1.193359,0.063965,-96.435547,16.784668,56.640625
150,-0.940918,-1.354004,0.081543,-77.331543,13.000488,29.235840
151,-0.955566,-1.410156,-0.099121,-62.072754,2.502441,-15.258789
152,-0.879883,-1.459961,-0.211426,-92.712402,7.812500,-89.965820
153,-0.666992,-1.263672,-0.482910,-117.065430,-2.380371,-95.214844
154,-0.502441,-1.104004,-0.744629,-127.990723,-4.882812,-81.726074
155,-0.588867,-1.146484,-1.021484,-120.239258,6.469727,-69.091797
156,-0.799316,-0.899414,-0.801758,-53.466797,11.657715,-75.500488
157,-0.718750,-0.662109,-0.796387,-18.310547,16.967773,-65.979004
158,-0.758301,-0.542480,-0.525879,2.990723,29.113770,-50.903320
159,-0.802734,-0.488281,-0.270020,12.817383,31.921387,-32.348633
160,-0.858398,-0.632812,0.247559,-7.446289,4.455566,-14.282227
161,-0.909180,-0.745605,0.262695,-26.367188,-29.296875,-19.897461
162,-0.888672,-0.651367,0.110840,-34.912109,-61.096191,-37.536621
163,-0.919434,-0.458984,-0.160645,-40.527344,-103.027344,-70.800781
164,-1.064453,-0.599609,-0.458496,-25.268555,-119.140625,-108.520508
165,-0.943359,-0.533691,-0.541504,-10.437012,-127.624512,-146.850586
166,-0.812988,-0.569824,-0.355957,-9.460449,-126.892090,-167.297363
167,-0.471191,-0.720703,-0.865234,-114.196777,-97.167969,-216.491699
168,-0.333984,-0.348145,-0.417480,-182.739258,-82.214355,-201.599121
169,-0.438477,-0.141113,-0.683105,-175.781250,-69.335938,-156.616211
170,-0.282227,-0.244141,-0.423340,-134.216309,-43.212891,-129.882812
171,-0.268555,-0.257324,-0.474121,-74.768066,-48.156738,-125.061035
172,-0.305176,-0.322754,-0.307129,-31.799316,-58.227539,-134.155273
173,-0.214844,-0.300781,-0.207031,-17.883301,-71.166992,-148.925781
174,0.039551,-0.200195,-0.201660,67.138672,-124.145508,-148.620605
175,0.015137,-0.103516,-0.076660,88.012695,-143.798828,-142.761230
176,0.002441,-0.034668,-0.145020,97.045898,-160.095215,-137.573242
177,0.018555,0.074219,-0.464355,107.055664,-160.766602,-119.750977
178,-0.014160,0.042480,-0.697266,130.004883,-132.995605,-101.684570
179,0.017578,-0.048828,-0.534180,164.794922,-98.144531,-80.444336
180,-0.021484,-0.101074,-0.153320,214.355469,-42.297363,-21.484375
181,-0.157715,-0.319336,-0.028809,193.420410,-38.391113,-6.958008
182,-0.238281,-0.520508,-0.061523,168.273926,-38.146973,2.746582
183,-0.200684,-1.078613,0.144531,103.149414,-43.701172,-14.709473
184,-0.028320,-1.073730,0.190430,80.810547,-28.320312,-29.113770
185,-0.162109,-1.174805,0.387695,74.035645,32.043457,1.159668
186,-0.341797,-1.328125,0.416504,68.481445,73.364258,20.935059
187,-0.339355,-1.530273,0.454102,65.673828,133.178711,48.034668
188,-0.517090,-1.755371,0.652832,-7.263184,179.199219,67.138672
189,-0.326172,-2.151855,0.887207,-95.520020,134.033203,8.544922
190,-0.182129,-1.583496,0.841797,-96.008301,39.794922,-1.831055
191,-0.170898,-1.367676,0.345215,23.498535,-54.443359,-7.446289
192,-0.107910,-1.143555,0.229980,88.806152,-122.924805,2.258301
193,-0.353516,-1.172852,-0.160156,180.053711,-238.281250,1.953125
194,-0.504395,-1.154297,-0.347168,201.965332,-221.984863,-17.089844
195,-0.391602,-0.797852,0.070801,193.969727,-181.274414,-16.845703
196,-0.422852,-0.807129,0.035645,193.969727,-189.086914,12.451172
197,-1.073242,-1.913574,0.073242,157.470703,-125.061035,28.564453
198,-1.153320,-1.570312,0.119141,58.532715,-56.213379,-29.602051
199,-0.498047,-1.025879,-0.264160,29.663086,-32.958984,-29.724121
200,-0.644531,-1.019043,-0.249023,109.558105,-37.780762,12.023926
201,-0.885254,-1.353027,-0.129395,167.114258,-68.054199,-23.132324
202,-0.880859,-1.432129,-0.162598,195.495605,-75.622559,-67.138672
203,-0.642090,-1.203613,-0.139160,254.638672,-104.797363,-104.980469
204,-0.589355,-1.107910,0.056641,250.183105,-83.312988,-110.168457
205,-0.500977,-0.895020,0.361328,229.003906,-71.594238,-79.162598
206,-0.465820,-0.739258,0.374023,207.824707,-46.997070,-44.067383
207,-0.469238,-0.694336,0.485840,181.152344,-8.361816,-4.882812
208,-0.482422,-0.618652,0.741211,143.554688,23.071289,22.399902
209,-0.463867,-0.410645,0.667480,68.847656,39.123535,31.860352
210,-0.302734,-0.340820,0.409668,68.786621,54.809570,31.250000
211,-0.261719,-0.265625,0.627930,74.890137,75.073242,27.893066
212,0.019043,-0.053223,1.219727,16.479492,54.016113,22.888184
213,0.070312,0.036621,1.132324,-4.089355,37.963867,19.714355
214,0.164551,0.099121,1.078613,-2.136230,20.935059,32.043457
215,0.032715,-0.085449,0.688477,-8.544922,16.723633,78.918457
216,-0.122070,-0.302246,0.489258,-54.077148,38.085938,87.890625
217,-0.318359,-0.514648,0.420898,-67.993164,58.654785,83.068848
218,-0.510254,-0.636230,0.547363,-67.993164,66.162109,70.861816
219,-0.488281,-0.660156,0.475586,-85.083008,46.752930,44.982910
220,-0.435547,-0.738281,0.371094,-76.599121,32.043457,35.400391
221,-0.373535,-0.762207,0.339844,-65.917969,20.996094,36.987305
222,-0.305664,-0.779785,0.326660,-38.146973,12.023926,53.222656
223,-0.245605,-0.892090,0.626953,27.038574,-5.615234,81.481934
224,-0.142578,-0.772949,0.990234,46.447754,-43.884277,81.481934
225,-0.375000,-0.901367,1.348145,57.189941,-104.675293,72.326660
226,-0.139648,-0.692871,1.298340,30.212402,-186.523438,31.738281
227,-0.158203,-0.863770,0.843750,-15.991211,-163.940430,19.531250
228,-0.286621,-1.075195,0.647949,-25.512695,-102.722168,-6.042480
229,-0.260742,-0.965332,0.561523,5.676270,44.006348,-3.051758
230,-0.302734,-0.885254,0.771484,6.408691,75.378418,15.380859
231,-0.365723,-0.895996,0.863770,-3.723145,69.702148,28.320312
232,-0.412109,-0.982910,0.901367,0.488281,46.691895,31.616211
233,-0.574219,-1.161621,1.171387,17.944336,-3.173828,14.282227
234,-0.528320,-1.290039,0.754395,2.014160,9.887695,-12.207031
235,-0.590332,-1.336426,0.314453,-18.737793,58.471680,-39.978027
236,-0.738281,-1.386719,-0.046387,3.540039,123.229980,-63.537598
237,-0.785156,-1.166504,0.323730,55.480957,168.457031,-70.373535
238,-0.686035,-1.102539,0.474609,75.622559,138.977051,-56.579590
239,-0.619141,-1.042969,0.690918,89.294434,95.397949,-39.794922
240,-0.593750,-0.913086,0.786621,59.265137,29.418945,-24.475098
241,-0.639160,-0.760254,0.713867,39.001465,20.935059,-25.451660
242,-0.709961,-0.655762,0.815430,11.657715,17.578125,-26.916504
243,-0.663574,-0.571777,0.883301,-8.117676,2.624512,-28.076172
244,-0.302246,-0.260742,0.763184,-11.657715,-20.263672,21.179199
245,-0.329102,-0.169434,0.782227,-33.874512,-18.676758,72.998047
246,-0.352051,-0.215820,0.790039,-74.584961,-16.967773,116.577148
247,-0.272461,-0.102539,0.645020,-115.661621,-23.437500,148.437500
248,-0.405273,-0.310059,0.224121,-149.291992,-24.658203,160.461426
249,-0.521484,-0.517090,0.120117,-131.713867,-5.859375,133.605957
250,-0.573730,-0.538086,0.138184,-95.520020,11.352539,102.416992
251,-0.550781,-0.502930,0.100586,-42.602539,38.452148,63.232422
252,-0.535156,-0.598145,0.186523,-35.827637,55.480957,41.320801
253,-0.514160,-0.659668,0.282715,-46.386719,67.199707,16.906738
254,-0.435547,-0.631348,0.264648,-57.006836,66.650391,-13.977051
255,-0.396973,-0.603516,0.206543,-48.339844,68.969727,-19.958496
256,-0.392578,-0.624512,0.204590,-33.813477,76.232910,-27.770996
257,-0.464355,-0.644531,0.319336,-20.385742,85.266113,-61.157227
258,-0.461426,-0.583984,0.394043,-21.667480,79.711914,-73.852539
259,-0.473145,-0.578613,0.471191,-46.691895,73.120117,-75.256348
260,-0.496582,-0.683105,0.413086,-90.454102,76.232910,-69.885254
261,-0.289062,-0.749023,-0.008301,-138.244629,142.456055,-39.062500
262,-0.260742,-0.714355,-0.004883,-153.198242,190.979004,-20.629883
263,-0.339355,-0.700195,0.051758,-161.499023,220.397949,-7.141113
264,-0.565918,-0.685547,0.062012,-159.973145,228.454590,2.563477
265,-0.599609,-0.626465,-0.064941,-150.207520,231.262207,4.394531
266,-0.539062,-0.539551,-0.187500,-135.742188,251.342773,10.498047
267,-0.604492,-0.660645,0.103027,-94.421387,285.278320,10.864258
268,-0.709961,-0.911621,0.270020,-54.260254,273.254395,0.427246
269,-0.840332,-1.247559,0.334961,4.577637,221.252441,-35.827637
270,-0.677734,-1.117188,0.604980,24.291992,202.636719,-54.016113
271,-0.429688,-1.530273,0.977051,-28.137207,107.238770,-80.200195
272,-0.405273,-1.088867,0.434570,-43.518066,66.589355,-49.926758
273,-0.600098,-1.135254,-0.296387,-69.824219,74.523926,-14.343262
274,-0.839355,-0.817871,-0.458984,-106.628418,108.276367,33.630371
275,-0.760742,-0.917480,-0.662109,-83.740234,92.895508,59.936523
276,-0.632812,-1.196289,-0.797363,-13.244629,61.462402,74.096680
277,-0.668945,-1.372070,-0.690430,72.692871,51.208496,27.221680
278,-0.642090,-1.152344,-0.494141,62.866211,58.166504,9.460449
279,-0.525879,-0.984863,-0.419434,45.410156,60.852051,7.873535
280,-0.553711,-0.872559,-0.527832,19.409180,65.307617,15.319824
281,-0.593262,-0.802246,-0.563477,8.789062,73.242188,15.991211
282,-0.587891,-0.777344,-0.530762,-1.586914,76.782227,17.883301
283,-0.610352,-0.817871,-0.520020,-8.544922,84.350586,14.099121
284,-0.453125,-0.781250,-0.326660,-10.192871,91.064453,2.746582
285,-0.449707,-0.841797,-0.186523,-9.887695,76.416016,4.638672
286,-0.435547,-0.665527,-0.099121,-14.282227,32.348633,15.258789
287,-0.408203,-0.550293,-0.192871,-38.940430,26.550293,27.709961
288,-0.354004,-0.537109,-0.130859,-51.452637,24.963379,35.705566
289,-0.398926,-0.333008,-0.159668,-62.561035,13.854980,41.625977
290,-0.484863,-0.358887,-0.179688,-61.035156,13.854980,41.687012
291,-0.409180,-0.401367,-0.146973,-46.569824,11.230469,35.766602
292,-0.281738,-0.441406,-0.106934,4.394531,10.986328,18.066406
293,-0.325195,-0.347168,-0.100098,27.221680,5.615234,18.310547
294,-0.156738,-0.354980,-0.011230,35.888672,4.943848,22.949219
295,-0.288574,-0.362305,-0.187988,32.104492,-11.230469,23.864746
296,-0.318848,-0.399902,-0.094727,23.864746,-18.371582,26.794434
297,-0.353516,-0.491211,-0.264648,22.216797,-17.150879,30.517578
298,-0.541504,-0.677734,-0.277344,31.188965,5.126953,42.724609
299,-0.447266,-0.808105,-0.222656,36.682129,-0.427246,36.682129
300,-0.355957,-0.892578,-0.133789,37.658691,-10.314941,26.611328
301,-0.327148,-0.908203,-0.012207,25.695801,-53.527832,23.498535
302,-0.329590,-0.925293,-0.160645,20.751953,-63.781738,24.841309
303,-0.353027,-0.909180,-0.181152,14.160156,-70.129395,26.794434
304,-0.621094,-1.070312,-0.300293,-4.394531,-89.843750,4.150391
305,-0.696289,-1.058594,-0.171875,3.051758,-99.975586,-14.099121
306,-0.752930,-1.023438,-0.054199,4.882812,-107.727051,-27.282715
307,-0.725098,-0.966309,0.122070,1.586914,-132.019043,-16.052246
308,-0.690430,-0.953125,0.181152,5.981445,-123.657227,-16.784668
309,-0.551758,-0.965820,0.095703,-8.117676,-99.243164,-22.277832
310,-0.426758,-0.725098,0.100098,13.244629,-59.265137,-19.470215
311,-0.282227,-0.528320,0.386719,17.089844,-63.537598,1.831055
312,-0.375000,-0.616211,0.378418,44.067383,-91.857910,46.813965
313,-0.582520,-0.892090,0.254883,85.937500,-189.147949,111.755371
314,-0.596191,-0.963867,0.133301,129.943848,-241.699219,143.981934
315,-0.912598,-1.402344,-0.684082,192.565918,-266.784668,162.414551
316,-1.503418,-1.483398,-0.342773,338.073730,-141.784668,74.218750
317,-1.283203,-1.307129,0.020508,229.675293,-102.050781,44.372559
318,-1.098633,-1.295898,0.023438,150.268555,-74.829102,25.085449
319,-0.883789,-1.070312,0.051270,66.833496,-52.246094,1.953125
320,-0.802246,-0.917480,0.019531,45.349121,-46.691895,-1.342773
321,-0.687988,-0.678711,0.029785,33.752441,-47.058105,1.647949
322,-0.685059,-0.346680,0.308105,-38.818359,-63.415527,20.690918
323,-0.725098,-0.355957,0.275391,-55.664062,-87.036133,26.245117
324,-0.690430,-0.318848,0.127441,-46.752930,-105.529785,30.883789
325,-0.729980,-0.303223,0.094238,6.713867,-115.539551,46.997070
326,-0.965820,-0.361816,0.049805,30.883789,-110.717773,53.039551
327,-1.133301,-0.063965,0.196777,29.235840,-101.501465,69.458008
328,-1.095215,0.198242,0.100586,1.831055,-88.195801,93.933105
329,-1.129883,0.353027,-0.078613,-23.010254,-55.114746,123.840332
330,-1.171875,0.279297,-0.500000,-20.996094,-2.990723,139.404297
331,-0.525391,0.101562,-0.425781,26.306152,155.090332,101.135254
332,-0.291992,0.062012,-0.270020,15.747070,251.647949,84.167480
333,-1.095703,-0.264160,-0.318848,49.804688,348.693848,45.349121
334,-1.323242,-0.268066,-0.078613,166.870117,346.313477,-9.216309
335,-1.436035,-0.286133,0.349609,294.677734,317.016602,-58.349609
336,-1.519043,-0.686523,1.216309,304.687500,228.271484,-174.072266
337,-1.117676,-0.457031,1.260742,195.617676,163.574219,-202.087402
338,-0.541504,-0.445801,0.898438,76.782227,84.594727,-121.276855
339,-0.297852,-0.643066,0.864746,28.869629,40.100098,-25.268555
340,-0.461426,-0.560059,0.705078,-18.676758,31.860352,-15.197754
341,-0.647949,-0.379883,0.500488,-21.789551,20.202637,-17.822266
342,-0.780762,-0.352051,0.532715,-18.310547,15.319824,-11.718750
343,-1.027832,-0.561523,0.659668,-18.554688,4.516602,-18.798828
344,-1.023926,-0.549316,0.774414,-3.417969,-24.902344,-15.014648
345,-1.008789,-0.747559,0.995605,7.873535,-22.033691,-5.981445
346,-1.075195,-0.862305,1.208984,27.648926,-16.174316,-1.525879
347,-1.188965,-0.788086,1.149414,36.254883,-25.268555,13.305664
348,-1.147949,-0.713867,0.107422,-35.888672,-30.090332,21.179199
349,-1.149902,-0.472656,0.040527,-3.234863,-39.428711,9.216309
350,-1.209473,-0.463867,0.167969,25.512695,-66.528320,5.432129
351,-1.339355,-0.474609,0.027832,55.541992,-118.896484,-11.840820
352,-1.359375,-0.546387,-0.082031,34.301758,-120.727539,-21.240234
353,-1.287109,-0.753906,-0.132812,22.094727,-108.154297,-36.010742
354,-1.159668,-0.816895,-0.119629,-8.544922,-85.083008,-11.596680
355,-1.102051,-1.056641,-0.039062,-55.053711,-70.434570,-1.525879
356,-1.082520,-1.100586,-0.081055,-93.750000,-59.326172,-4.333496
357,-0.926270,-0.966309,-0.064941,-114.196777,-49.804688,-13.061523
358,-0.926270,-0.789551,0.047852,-120.361328,-56.335449,-14.587402
359,-0.923828,-0.770996,-0.069336,-115.051270,-59.082031,-21.667480
360,-0.829102,-0.505371,-0.251465,-58.166504,-72.998047,-35.827637
361,-0.737793,-0.415039,-0.315918,-17.944336,-73.120117,-31.616211
362,-0.675293,-0.353027,-0.279785,11.779785,-61.767578,-24.414062
363,-0.582520,-0.410156,-0.346191,35.156250,-37.475586,-26.184082
364,-0.545410,-0.306152,-0.271484,58.349609,30.761719,-48.583984
365,-0.587402,-0.241211,-0.219727,75.622559,50.231934,-52.978516
366,-0.600098,-0.237305,-0.123047,93.994141,60.791016,-57.312012
367,-0.579102,-0.318359,0.078125,91.552734,70.922852,-82.702637
368,-0.478027,-0.172363,0.069824,82.763672,63.110352,-66.345215
369,-0.804688,-0.756836,-0.213867,121.765137,48.828125,-28.076172
370,-0.716309,-0.780762,0.025879,155.578613,45.043945,-56.030273
371,-0.608398,-0.737793,0.248047,111.999512,59.936523,-104.797363
372,-0.474609,-0.594727,0.472168,52.734375,62.683105,-143.981934
373,-0.294434,-0.381836,0.598633,-88.073730,39.611816,-180.480957
374,-0.282227,-0.394043,0.695801,-149.902344,16.540527,-205.871582
375,-0.240234,-0.341797,0.692383,-208.984375,-11.352539,-230.895996
376,0.018555,-0.164062,0.061523,-226.379395,-36.560059,-219.116211
377,-0.020020,-0.339355,0.128418,-170.288086,-30.151367,-163.146973
378,0.000488,-0.579590,0.086426,-130.615234,-31.311035,-113.647461
379,-0.051270,-0.923828,0.076172,-70.251465,-25.695801,-78.796387
380,-0.338867,-1.118164,0.640625,-88.317871,-12.268066,-11.535645
381,-0.476074,-1.217773,0.528809,-140.136719,12.329102,1.708984
382,-0.541016,-1.352539,0.188477,-171.325684,26.977539,1.586914
383,-0.588379,-1.380859,0.419434,-121.276855,0.549316,-5.249023
384,-0.619141,-1.359375,0.685059,-85.510254,-48.583984,-10.803223
385,-0.526855,-1.273926,0.456543,-5.920410,-119.750977,-8.300781
386,-0.458496,-1.202637,0.339355,17.700195,-122.802734,12.023926
387,-0.366699,-1.213379,0.095703,28.503418,-93.566895,21.789551
388,-0.146484,-1.200195,-0.101074,31.372070,2.929688,17.272949
389,-0.104492,-1.185059,0.016113,24.047852,48.278809,9.033203
390,-0.175781,-1.196289,0.165039,11.474609,64.331055,6.042480
391,-0.427734,-1.238770,0.072266,4.760742,41.015625,-20.996094
392,-0.617188,-1.256348,0.085938,15.808105,33.935547,-10.742188
393,-0.750977,-1.245605,-0.009766,16.967773,25.390625,2.136230
394,-0.818848,-1.249512,-0.094727,19.592285,26.794434,16.967773
395,-0.756836,-0.946289,-0.371582,43.579102,46.447754,45.410156
396,-0.712891,-0.828613,-0.421875,66.162109,63.842773,52.551270
397,-0.585449,-0.711914,-0.395996,104.553223,86.242676,55.725098
398,-0.613281,-0.727539,-0.387207,122.070312,95.520020,61.706543
399,-0.671387,-0.738281,-0.294922,128.051758,100.402832,61.462402
400,-0.734375,-0.759766,-0.087402,113.037109,93.750000,53.894043
401,-0.770020,-0.764648,-0.057617,34.179688,38.696289,40.466309
402,-0.766113,-0.820312,-0.215820,10.070801,14.465332,34.606934
403,-0.721191,-0.849121,-0.235352,-4.516602,5.615234,23.864746
404,-0.594727,-0.858887,-0.156250,-32.409668,17.028809,7.751465
405,-0.565430,-0.907715,0.084961,-28.808594,26.977539,16.296387
406,-0.613770,-1.027832,0.844727,166.320801,56.213379,124.450684
407,-0.726074,-1.001953,0.979492,116.699219,46.997070,146.423340
408,-0.602539,-0.855957,0.395996,65.063477,25.024414,128.601074
409,-0.209473,-0.600098,0.023438,84.228516,-3.173828,80.810547
410,-0.104492,-0.521484,0.013184,97.167969,-9.399414,70.312500
411,-0.119629,-0.462402,0.002930,94.909668,-13.366699,69.702148
412,-0.135742,-0.456543,-0.059570,70.495605,-10.925293,75.012207
413,-0.153320,-0.434082,-0.114746,53.649902,-6.591797,68.908691
414,-0.178223,-0.371094,-0.111816,23.254395,7.568359,43.579102
415,-0.218262,-0.339844,-0.119141,17.333984,7.202148,28.991699
416,-0.270508,-0.312012,-0.085449,14.282227,7.690430,15.441895
417,-0.360840,-0.272461,-0.001465,2.319336,11.108398,-12.145996
418,-0.439453,-0.250488,0.051270,10.253906,13.854980,-21.301270
419,-0.522949,-0.249512,0.125488,20.385742,16.174316,-31.250000
420,-0.772461,-0.407227,0.465332,21.667480,24.658203,-64.331055
421,-0.938965,-0.591309,0.748535,9.826660,26.916504,-93.322754
422,-1.065430,-0.728027,1.387695,-19.714355,21.850586,-124.816895
423,-1.374023,-1.840820,2.095215,-56.640625,-18.310547,-136.047363
424,-0.933105,-1.544922,1.153320,-183.044434,105.773926,-46.936035
425,-1.266113,-1.704590,-0.296875,-176.269531,164.489746,-11.535645
426,-1.100098,-1.010742,0.007812,-94.299316,143.798828,-10.986328
427,-0.727051,-0.384766,-0.365234,-101.196289,64.453125,1.586914
428,-0.608887,-0.214844,-0.558105,-43.884277,36.926270,8.117676
429,-0.750977,-0.338867,-0.601074,84.045410,-5.615234,-5.310059
430,-0.911133,-0.536621,-0.532715,95.581055,-8.361816,-30.151367
431,-1.145508,-0.962402,-0.236328,56.457520,-3.723145,-64.147949
432,-1.340820,-1.395996,-0.071289,-126.098633,-3.540039,-155.212402
433,-1.055176,-1.297852,-0.352051,-209.106445,24.963379,-182.434082
434,-0.849609,-1.170898,-0.622559,-212.768555,42.236328,-191.406250
435,-0.593750,-1.149902,-0.832031,4.943848,5.981445,-165.283203
436,-0.385254,-1.104492,-0.756836,141.174316,-13.977051,-119.934082
437,-0.336914,-1.125977,-0.595703,218.566895,-1.037598,-69.641113
438,-0.285156,-1.198730,-0.406250,245.849609,32.165527,-40.405273
439,-0.142578,-1.290527,-0.250000,179.504395,105.773926,-31.982422
440,-0.034668,-1.241699,-0.251465,129.333496,132.934570,-37.475586
441,0.061035,-1.142090,-0.083984,84.045410,137.390137,-42.480469
442,0.135742,-0.946777,0.406250,-17.761230,99.060059,-45.593262
443,0.162598,-0.784668,0.642578,-91.857910,56.579590,-47.668457
444,0.199707,-0.617676,0.749512,-160.461426,2.075195,-48.645020
445,-0.068848,-0.266113,0.811523,-195.190430,-167.297363,-32.592773
446,-0.285645,-0.288574,0.475098,-166.625977,-231.445312,-35.644531
447,-0.354980,-0.298828,0.209961,-122.375488,-257.263184,-49.377441
448,-0.286133,-0.264648,0.066895,-72.570801,-250.488281,-58.837891
449,-0.141113,-0.357422,0.047363,-9.155273,-182.312012,-58.105469
450,-0.163086,-0.477051,-0.021484,7.080078,-125.061035,-51.757812
451,-0.329590,-0.507324,0.159180,34.606934,-19.836426,-25.451660
452,-0.438965,-0.543945,0.272949,49.743652,-4.516602,-13.061523
453,-0.410645,-0.539551,0.244141,56.823730,-8.605957,1.770020
454,-0.427734,-0.540039,0.113281,57.678223,-4.089355,17.639160
455,-0.465820,-0.672363,0.148438,25.756836,44.250488,33.874512
456,-0.429688,-0.737305,0.140625,13.244629,56.945801,35.644531
457,-0.397949,-0.843262,0.229004,0.732422,56.701660,38.024902
458,-0.346680,-1.009277,0.240723,-6.896973,32.653809,37.536621
459,-0.325195,-1.050781,0.293457,-15.625000,18.371582,38.269043
460,-0.392090,-1.156738,0.252930,-34.790039,7.995605,38.635254
461,-0.437500,-1.423340,0.373535,-73.303223,-25.329590,31.555176
462,-0.458496,-1.527344,0.338379,-80.383301,-52.062988,22.705078
463,-0.450195,-1.527344,0.305176,-72.753906,-74.340820,12.390137
464,-0.354980,-1.349609,0.240234,-24.780273,-91.430664,5.554199
465,-0.263672,-1.231445,0.146484,0.793457,-72.143555,12.512207
466,-0.185547,-1.148926,0.047363,17.883301,-31.677246,22.521973
467,-0.211426,-1.065430,0.098633,23.071289,58.105469,20.385742
468,-0.263184,-1.171875,0.102539,22.888184,79.101562,18.310547
469,-0.226074,-1.242676,0.040039,35.156250,80.505371,15.625000
470,-0.326660,-1.282227,0.016113,82.214355,67.871094,22.460938
471,-0.426758,-1.225098,0.057617,92.163086,64.392090,29.296875
472,-0.498047,-1.168945,0.028320,92.956543,61.157227,36.804199
473,-0.486816,-1.070312,-0.050781,91.796875,59.082031,53.283691
474,-0.501953,-1.040527,-0.263184,101.562500,65.246582,73.059082
475,-0.557617,-1.034180,-0.296875,108.398438,74.768066,71.166992
476,-0.675781,-1.002441,-0.212402,83.435059,86.669922,53.100586
477,-0.673828,-0.934082,-0.059570,58.532715,75.317383,45.715332
478,-0.749023,-0.929688,-0.191406,35.461426,49.438477,41.931152
479,-0.833496,-0.908203,-0.341309,45.654297,6.286621,47.241211
480,-0.854492,-0.992188,-0.362793,58.776855,-8.361816,53.222656
481,-0.965820,-1.150391,-0.286621,63.903809,-13.366699,56.884766
482,-1.002930,-1.200684,-0.142090,45.593262,-6.530762,40.771484
483,-0.742676,-0.890625,0.349609,-56.640625,-43.212891,-23.986816
484,-0.462891,-0.725586,0.400391,-30.090332,-99.365234,-6.835938
485,-0.282227,-0.701660,0.166016,101.989746,-109.558105,28.686523
486,0.014160,-0.549805,0.264648,113.647461,-75.439453,41.137695
487,0.020508,-0.552246,0.397461,132.507324,-36.804199,50.964355
488,0.049805,-0.494141,0.479004,119.873047,-20.751953,45.043945
489,0.194336,-0.349121,0.140625,89.965820,-2.258301,35.461426
490,0.093262,-0.360352,0.040527,71.655273,12.145996,35.644531
491,-0.129883,-0.376953,0.020020,17.639160,31.311035,22.155762
492,-0.192383,-0.386230,-0.048828,-3.601074,30.029297,10.253906
493,-0.264648,-0.404785,-0.101562,-16.723633,29.296875,-4.516602
494,-0.352539,-0.431641,-0.060547,-19.592285,30.822754,-43.518066
495,-0.334473,-0.388672,0.067871,-18.066406,15.197754,-55.786133
496,-0.343750,-0.361816,0.168457,-11.535645,3.967285,-58.837891
497,-0.421875,-0.392578,0.381348,-11.596680,-2.868652,-61.645508
498,-0.646484,-0.486328,0.734863,-50.598145,-10.681152,-75.073242
499,-0.825195,-0.577637,0.915527,-65.612793,-11.047363,-79.772949
500,-1.409668,-1.166504,1.593262,-26.672363,-16.845703,-56.762695
501,-1.443848,-2.145996,1.840332,-73.486328,21.789551,-50.170898
502,-0.865723,-1.889648,1.259277,-185.546875,22.644043,-49.743652
503,-0.902344,-1.514160,-0.166016,-181.152344,5.859375,-16.357422
504,-0.642578,-0.701172,-0.252930,-47.729492,11.474609,14.282227
505,-0.574219,-0.486328,-0.345215,-18.432617,5.981445,5.310059
506,-0.505371,-0.355469,-0.383301,28.320312,-1.037598,-9.216309
507,-0.487305,-0.629883,-0.123535,110.839844,-48.095703,-25.573730
508,-0.575684,-0.905273,0.009277,99.792480,-64.880371,-34.912109
509,-0.699219,-1.302246,0.192383,62.133789,-62.194824,-36.132812
510,-0.748047,-1.819824,0.376465,-76.477051,-32.531738,-16.235352
511,-0.578613,-1.637695,-0.353516,-129.821777,2.075195,-21.362305
512,-0.616699,-1.435547,-0.293945,-118.469238,11.352539,-22.583008
513,-0.571289,-1.257324,-0.208008,-85.083008,-3.173828,-30.090332
514,-0.292969,-0.965820,-0.239746,-7.568359,-17.822266,-34.484863
515,-0.271973,-0.921875,-0.255371,22.460938,-8.178711,-31.677246
516,-0.262695,-0.923340,-0.256348,39.184570,12.451172,-31.799316
517,-0.285645,-1.041504,-0.257324,37.658691,68.420410,-44.555664
518,-0.239258,-1.106934,-0.227051,16.906738,101.257324,-55.908203
519,-0.189941,-1.121094,-0.079102,-11.718750,124.023438,-64.880371
520,-0.064941,-1.020996,0.219238,-65.490723,116.516113,-66.467285
521,-0.047363,-0.892578,0.361816,-93.017578,85.388184,-59.387207
522,-0.086426,-0.760254,0.336914,-113.220215,47.180176,-46.447754
523,-0.281738,-0.637695,0.465820,-102.478027,-35.400391,-30.761719
524,-0.348145,-0.581055,0.469727,-108.154297,-79.345703,-26.794434
525,-0.359863,-0.447266,0.195312,-86.608887,-140.136719,-16.662598
526,-0.247559,-0.384766,0.084961,-61.828613,-142.333984,-12.634277
527,-0.159180,-0.400391,0.068359,-39.184570,-127.807617,-7.141113
528,-0.112793,-0.464355,0.041992,-25.329590,-101.684570,-2.929688
529,-0.170410,-0.527832,0.187012,-16.296387,-44.311523,-4.943848
530,-0.194824,-0.553223,0.226562,-15.136719,-32.958984,-3.845215
531,-0.325684,-0.562988,0.236328,15.014648,-21.972656,6.713867
532,-0.374023,-0.595215,0.259766,25.146484,-13.427734,15.625000
533,-0.420410,-0.666992,0.272461,25.024414,-1.098633,23.925781
534,-0.436523,-0.804688,0.256836,16.723633,22.460938,31.677246
535,-0.452637,-0.869141,0.262695,13.183594,34.667969,33.813477
536,-0.483398,-0.970703,0.258301,10.803223,46.813965,32.226562
537,-0.425293,-1.110352,0.301758,-4.760742,47.363281,29.052734
538,-0.435059,-1.174805,0.332031,-9.521484,34.484863,28.381348
539,-0.476074,-1.241699,0.404297,-12.023926,11.413574,25.634766
540,-0.524414,-1.312988,0.492188,-8.850098,-60.729980,15.991211
541,-0.499023,-1.245117,0.386230,3.662109,-90.026855,15.136719
542,-0.403809,-1.225098,0.233887,20.996094,-99.487305,16.723633
543,-0.262207,-1.216797,0.087402,31.677246,-81.542969,18.798828
544,-0.174805,-1.180664,0.080078,23.315430,-2.014160,20.935059
545,-0.195801,-1.159668,0.082520,15.075684,20.812988,23.254395
546,-0.244141,-1.184082,0.024902,19.409180,36.071777,27.282715
547,-0.314941,-1.402832,-0.008301,54.870605,49.682617,22.399902
548,-0.353027,-1.386719,0.075684,83.862305,47.119141,16.418457
549,-0.383789,-1.237793,0.175293,101.379395,35.339355,24.597168
550,-0.446777,-1.164551,0.161133,102.722168,20.996094,44.921875
551,-0.562500,-1.109863,-0.074707,89.111328,17.761230,76.354980
552,-0.600586,-1.112793,-0.148926,75.500488,20.080566,76.232910
553,-0.601562,-1.061523,-0.210938,71.411133,19.958496,68.847656
554,-0.577148,-0.909668,-0.090332,51.818848,0.366211,60.913086
555,-0.610840,-0.876953,-0.175781,25.695801,-9.338379,63.476562
556,-0.800293,-0.878906,-0.191406,-28.076172,-11.657715,48.889160
557,-0.832031,-0.864258,-0.207031,-49.316406,-15.197754,29.418945
558,-0.687988,-0.820312,-0.276855,-57.250977,-8.728027,0.488281
559,-0.618164,-0.816406,-0.189941,-51.635742,-2.319336,-8.666992
560,-0.574707,-0.805176,-0.115723,-37.658691,5.126953,-13.793945
561,-0.545410,-0.802734,-0.096680,-16.784668,24.597168,-11.413574
562,-0.511719,-0.854980,0.502441,62.988281,50.476074,26.000977
563,-0.490723,-0.883301,0.500488,91.491699,81.787109,48.828125
564,-0.280273,-0.751465,0.647461,38.391113,62.866211,47.729492
565,-0.154785,-0.641602,0.412598,32.836914,26.489258,35.705566
566,-0.021484,-0.514648,0.303711,43.334961,0.366211,34.729004
567,0.020508,-0.447266,0.219727,45.410156,-11.596680,41.259766
568,-0.018555,-0.370605,0.009766,24.108887,-8.789062,47.424316
569,-0.046875,-0.347168,-0.035645,5.249023,-1.342773,44.067383
570,-0.112793,-0.382324,-0.101562,-15.502930,7.446289,38.085938
571,-0.274902,-0.390137,-0.177246,-37.780762,26.855469,3.723145
572,-0.357422,-0.409180,-0.166992,-41.198730,28.076172,-15.502930
573,-0.396484,-0.422852,-0.141113,-29.907227,21.118164,-33.325195
574,-0.413086,-0.432129,-0.060547,-6.652832,10.559082,-45.471191
575,-0.611816,-0.564453,0.186523,40.710449,-10.009766,-62.133789
576,-0.783203,-0.617676,0.339355,57.678223,-14.099121,-77.880859
577,-0.964355,-0.652344,0.703613,64.086914,-19.409180,-93.627930
578,-1.354980,-1.044434,1.703613,34.912109,-53.222656,-110.290527
579,-1.395020,-1.581543,1.710938,15.014648,-28.869629,-96.130371
580,-0.820801,-1.886230,1.708984,-25.329590,-7.202148,-64.331055
581,-0.529785,-1.135742,0.075195,-16.662598,-39.794922,-1.464844
582,-0.440430,-0.765137,-0.135254,-31.616211,-1.037598,9.094238
583,-0.408203,-0.560547,-0.312012,-34.240723,30.395508,9.887695
584,-0.489746,-0.590332,-0.255859,1.464844,38.208008,-1.586914
585,-0.601562,-0.784668,-0.132812,15.686035,19.348145,-18.432617
586,-0.750977,-1.096680,-0.060547,9.277344,-2.441406,-35.339355
587,-0.937988,-1.456543,0.056641,-9.460449,-14.160156,-42.236328
588,-0.956543,-1.768555,-0.032227,-71.044922,3.295898,-24.536133
589,-0.842285,-1.565918,-0.287598,-70.617676,-7.995605,-27.404785
590,-0.742188,-1.298828,-0.274902,-28.076172,-31.127930,-19.714355
591,-0.518555,-0.929688,-0.193848,42.175293,-43.884277,-14.343262
592,-0.494629,-0.780273,-0.164551,49.560547,-31.494141,-13.549805
593,-0.518555,-0.731445,-0.261230,58.166504,-8.605957,-14.587402
594,-0.476562,-0.808594,-0.367676,96.984863,70.983887,-32.836914
595,-0.441895,-0.894531,-0.270996,102.172852,99.365234,-43.945312
596,-0.469727,-1.067383,-0.190430,96.252441,118.713379,-58.288574
597,-0.463379,-1.243652,-0.058105,69.702148,127.868652,-81.420898
598,-0.360352,-1.258301,0.193848,18.493652,121.765137,-107.543945
599,-0.074219,-0.909180,0.498047,-99.731445,53.527832,-107.177734
600,-0.002930,-0.769531,0.507812,-135.314941,-8.422852,-76.843262
601,0.023926,-0.686035,0.486328,-152.648926,-62.622070,-46.264648
602,-0.039551,-0.456055,0.499023,-167.053223,-155.395508,-4.455566
603,-0.058105,-0.411133,0.274414,-135.070801,-184.448242,4.455566
604,-0.014160,-0.374512,0.067383,-49.621582,-174.804688,6.896973
605,-0.004883,-0.393555,0.104492,-35.705566,-140.930176,3.967285
606,-0.033203,-0.441406,0.128906,-40.222168,-98.266602,-3.967285
607,-0.110352,-0.466797,0.160645,-47.668457,-58.288574,-12.634277
608,-0.287109,-0.496582,0.308105,-27.832031,-19.958496,-18.737793
609,-0.376465,-0.527344,0.335938,-6.896973,-25.268555,-13.549805
610,-0.508789,-0.613281,0.280762,28.198242,-26.489258,5.249023
611,-0.500977,-0.696289,0.265137,37.414551,-11.901855,16.967773
612,-0.451660,-0.795410,0.259277,38.818359,7.202148,26.245117
613,-0.385742,-0.944824,0.312500,26.794434,23.925781,28.137207
614,-0.309082,-0.990723,0.354004,19.531250,18.859863,22.827148
615,-0.261230,-1.018555,0.389160,5.554199,10.314941,21.484375
616,-0.310547,-1.083496,0.392578,-24.658203,-11.474609,29.296875
617,-0.388184,-1.145508,0.405273,-34.423828,-24.230957,31.005859
618,-0.446777,-1.188965,0.403809,-39.245605,-39.794922,28.137207
619,-0.592285,-1.199707,0.339844,-31.860352,-80.017090,25.512695
620,-0.633789,-1.167480,0.285645,-14.953613,-87.036133,23.376465
621,-0.518066,-1.161621,0.209473,6.896973,-78.125000,23.254395
622,-0.244141,-1.166992,0.034180,24.108887,-10.742188,24.414062
623,-0.193359,-1.188477,0.020508,21.484375,18.371582,25.939941
624,-0.202148,-1.216797,0.051758,17.517090,40.832520,23.986816
625,-0.236328,-1.280273,0.092773,16.052246,53.710938,21.301270
626,-0.252930,-1.444824,0.138184,25.512695,63.476562,6.408691
627,-0.337891,-1.402832,0.168945,37.658691,54.321289,3.234863
628,-0.428711,-1.099121,0.102051,43.945312,33.264160,32.287598
629,-0.471191,-1.007812,0.069824,46.569824,24.597168,54.870605
630,-0.493652,-0.949219,-0.000977,44.982910,14.831543,68.359375
631,-0.529785,-0.833984,-0.125000,61.157227,2.380371,78.063965
632,-0.645020,-0.860840,-0.136230,60.424805,-0.366211,72.937012
633,-0.689941,-0.830078,-0.152344,54.077148,-3.662109,57.556152
634,-0.748047,-0.876465,-0.165039,2.624512,-17.639160,40.588379
635,-0.781250,-0.920898,-0.122070,-14.404297,-24.780273,36.743164
636,-0.760742,-0.953125,-0.084961,-31.066895,-31.738281,28.625488
637,-0.629883,-0.950195,-0.111816,-37.841797,-32.714844,13.549805
638,-0.603516,-0.991699,-0.097656,-23.986816,-20.629883,7.873535
639,-0.585938,-1.007812,-0.110352,-4.211426,-2.014160,4.333496
640,-0.570312,-0.975586,-0.113770,18.981934,25.878906,4.028320
641,-0.535645,-0.939941,0.426758,122.192383,34.973145,37.841797
642,-0.458496,-0.943848,0.500000,131.103516,44.738770,50.964355
643,-0.323242,-0.703613,0.386719,130.737305,20.507812,54.565430
644,-0.259766,-0.565918,0.258789,138.793945,5.981445,37.353516
645,-0.220703,-0.418457,0.231934,136.779785,-7.568359,27.404785
646,-0.148926,-0.353027,-0.085449,107.910156,-13.916016,31.311035
647,-0.102539,-0.357910,-0.128906,93.750000,2.319336,33.081055
648,-0.046387,-0.374023,-0.018555,73.608398,16.784668,31.066895
649,-0.036133,-0.424805,0.095703,43.273926,18.737793,22.521973
650,-0.084961,-0.446289,0.180664,-3.906250,8.666992,-8.605957
651,-0.198730,-0.513672,0.144043,-21.057129,1.403809,-26.062012
652,-0.300293,-0.459473,0.308105,-43.762207,5.920410,-49.682617
653,-0.367676,-0.457031,0.379395,-50.903320,-0.549316,-46.813965
654,-0.447754,-0.514160,0.426758,-58.227539,-5.920410,-45.837402
655,-0.636719,-0.610352,0.630371,-74.523926,-18.920898,-53.588867
656,-0.735840,-0.659180,0.761230,-70.861816,-23.437500,-55.053711
657,-0.849121,-0.703125,1.068848,-42.663574,-26.123047,-52.490234
658,-1.012207,-1.531738,1.916016,-60.241699,-30.822754,-43.151855
659,-0.738770,-1.686523,1.185059,-157.714844,-34.912109,-49.499512
660,-0.723633,-1.451660,0.165527,-178.649902,-18.310547,-43.029785
661,-0.707031,-0.841797,-0.187012,-91.918945,53.527832,-7.141113
662,-0.683594,-0.693359,-0.217773,-59.631348,64.575195,-0.427246
663,-0.641113,-0.531738,-0.194824,-3.295898,56.091309,-1.403809
664,-0.615723,-0.781250,-0.030273,123.596191,5.737305,-27.465820
665,-0.576172,-1.036133,0.066406,144.348145,-21.911621,-38.940430
666,-0.580078,-1.236328,0.125488,136.413574,-38.085938,-44.555664
667,-0.732910,-1.510254,0.513672,76.904297,-13.793945,-30.822754
668,-0.684570,-1.660645,0.398438,2.502441,14.709473,-38.330078
669,-0.591797,-1.503418,-0.001465,-52.612305,34.240723,-54.138184
670,-0.456543,-1.208008,-0.144531,-48.278809,33.203125,-51.879883
671,-0.367676,-1.043457,-0.135742,-19.958496,33.691406,-42.297363
672,-0.267090,-0.846191,-0.045410,3.662109,32.226562,-31.921387
673,-0.234863,-0.757324,-0.076660,9.887695,37.048340,-26.245117
674,-0.155762,-0.804199,-0.045410,7.141113,40.588379,-25.268555
675,-0.112793,-0.870117,-0.010254,-7.141113,46.997070,-37.170410
676,-0.078613,-0.934570,0.045410,-28.686523,54.321289,-54.138184
677,-0.114258,-1.029785,0.165039,-76.965332,45.715332,-75.805664
678,-0.148926,-1.048340,0.169922,-90.332031,33.142090,-78.002930
679,-0.171387,-1.010742,0.198242,-89.599609,13.671875,-69.152832
680,-0.197754,-0.973145,0.302734,-88.378906,-12.512207,-51.330566
681,-0.459473,-0.873047,0.409180,-105.346680,-68.664551,-19.348145
682,-0.559570,-0.810547,0.290527,-95.397949,-80.871582,-20.385742
683,-0.473633,-0.641113,0.195801,-70.068359,-74.890137,-22.949219
684,-0.337891,-0.557129,0.108887,-50.170898,-56.335449,-17.944336
685,-0.251953,-0.500977,0.112305,-27.770996,-30.883789,-10.192871
686,-0.188477,-0.501465,0.205566,-18.981934,-7.385254,-3.967285
687,-0.123535,-0.604492,0.094727,-14.038086,32.714844,-11.230469
688,-0.112305,-0.594727,0.145996,-2.380371,41.198730,-11.718750
689,-0.174316,-0.606934,0.165527,19.042969,34.545898,0.183105
690,-0.218262,-0.628906,0.195801,26.245117,29.602051,9.399414
691,-0.275391,-0.686035,0.201660,27.770996,23.254395,18.005371
692,-0.353516,-0.811035,0.198242,27.893066,20.446777,23.498535
693,-0.357422,-0.850098,0.208008,21.850586,24.536133,26.062012
694,-0.374512,-0.904297,0.248535,10.253906,27.038574,30.029297
695,-0.405762,-0.941406,0.283203,-6.225586,27.343750,34.423828
696,-0.441406,-1.074219,0.333008,-30.029297,13.793945,35.888672
697,-0.437012,-1.094727,0.346680,-34.606934,0.854492,33.386230
698,-0.470215,-1.100586,0.385742,-35.034180,-10.803223,30.761719
699,-0.487305,-1.085938,0.351562,-30.456543,-20.690918,28.747559
700,-0.475098,-1.158203,0.401367,-11.108398,-25.451660,21.179199
701,-0.387695,-1.130859,0.428223,-3.417969,-27.954102,13.305664
702,-0.300293,-1.104004,0.394043,3.112793,-28.808594,9.521484
703,-0.209473,-1.102051,0.319824,7.934570,-20.690918,6.164551
704,-0.108398,-1.096680,0.225098,13.732910,-4.211426,3.845215
705,-0.031738,-1.149902,0.102051,17.517090,60.424805,4.272461
706,-0.112305,-1.168457,0.162109,10.559082,91.735840,5.126953
707,-0.292480,-1.241699,0.233398,20.935059,79.711914,7.751465
708,-0.343750,-1.301758,0.284668,33.691406,53.649902,9.826660
709,-0.346680,-1.338867,0.276367,44.250488,26.000977,13.732910
710,-0.402832,-1.189453,0.099121,69.213867,-4.089355,30.639648
711,-0.379395,-1.062500,0.038086,69.580078,-1.770020,42.907715
712,-0.402832,-0.983398,-0.036133,67.993164,4.455566,53.955078
713,-0.500977,-0.894531,-0.115723,66.345215,15.197754,57.922363
714,-0.534668,-0.850098,-0.179688,65.063477,25.573730,50.048828
715,-0.560059,-0.811035,-0.221680,62.377930,40.771484,39.489746
716,-0.618164,-0.809570,-0.185059,41.809082,72.021484,23.925781
717,-0.614746,-0.848633,-0.158691,25.634766,80.383301,18.310547
718,-0.627441,-0.913086,-0.108887,9.277344,78.247070,15.686035
719,-0.587891,-1.060059,-0.082031,-5.249023,49.621582,8.483887
720,-0.499023,-1.121582,-0.098145,-4.333496,30.151367,1.892090
721,-0.448730,-1.141113,-0.076660,0.061035,14.892578,-4.882812
722,-0.319336,-1.003906,0.024902,-11.596680,2.685547,-9.887695
723,-0.301270,-0.896973,0.219238,12.268066,6.713867,4.150391
724,-0.469238,-1.022949,0.264160,107.727051,32.287598,39.672852
725,-0.452148,-0.878418,1.071289,113.281250,94.604492,65.368652
726,-0.318359,-0.729004,0.659668,64.697266,61.462402,50.537109
727,-0.209961,-0.641113,0.358398,75.561523,25.512695,41.992188
728,-0.163086,-0.458008,0.117188,104.187012,3.906250,43.640137
729,-0.203125,-0.438965,0.060059,97.900391,8.056641,41.320801
730,-0.223633,-0.441895,-0.007324,84.350586,11.352539,32.043457
731,-0.212402,-0.434570,-0.058594,67.687988,13.549805,20.385742
732,-0.202148,-0.453613,-0.100586,39.367676,19.592285,6.713867
733,-0.237305,-0.476074,-0.082520,28.686523,23.803711,0.793457
734,-0.294922,-0.529785,-0.065430,17.517090,26.977539,-7.934570
735,-0.361816,-0.583496,-0.043457,7.202148,29.235840,-18.859863
736,-0.392578,-0.628418,-0.017578,-12.512207,28.869629,-41.809082
737,-0.465332,-0.579590,0.022949,-4.760742,29.602051,-48.339844
738,-0.547363,-0.615234,0.187988,0.000000,26.672363,-55.969238
739,-0.729004,-0.703125,0.600098,-25.207520,13.183594,-77.575684
740,-0.816406,-0.716797,0.870605,-52.795410,-0.976562,-87.524414
741,-0.870605,-0.699219,1.084961,-62.377930,-19.775391,-88.012695
742,-1.091797,-1.466309,1.556152,-61.218262,-22.949219,-55.480957
743,-0.799805,-1.673340,1.267578,-91.552734,-8.300781,-44.006348
744,-0.671875,-1.478027,0.729980,-79.223633,-13.916016,-29.357910
745,-0.594238,-1.212891,0.069336,-47.058105,-1.403809,-9.887695
746,-0.565918,-0.680176,-0.306152,-1.342773,41.320801,18.310547
747,-0.498047,-0.548340,-0.336914,23.132324,48.522949,7.568359
748,-0.419922,-0.541992,-0.165527,54.870605,39.428711,-6.835938
749,-0.475586,-0.715820,0.060547,76.232910,12.329102,-22.033691
750,-0.567383,-1.159668,0.246582,93.139648,-26.367188,-29.541016
751,-0.661621,-1.526855,0.590820,112.060547,-16.784668,-10.009766
752,-0.641602,-1.894043,0.738281,21.423340,-11.474609,-13.305664
753,-0.464844,-1.722656,-0.101562,-55.969238,-12.512207,-23.986816
754,-0.370605,-1.113770,-0.238770,-48.767090,-18.920898,-18.005371
755,-0.318848,-0.962891,-0.291016,-24.780273,-18.737793,-23.193359
756,-0.264648,-0.827148,-0.208984,2.929688,-12.695312,-31.372070
757,-0.256348,-0.751465,-0.090820,25.878906,-7.263184,-42.968750
758,-0.250488,-0.773438,-0.118164,28.259277,0.183105,-46.997070
759,-0.251465,-0.821289,-0.105957,27.160645,8.666992,-50.109863
760,-0.244629,-0.934570,-0.130859,20.751953,18.310547,-52.307129
761,-0.201172,-1.151855,-0.065918,-1.525879,51.086426,-71.228027
762,-0.228027,-1.181641,0.110352,-31.188965,69.458008,-74.462891
763,-0.277832,-1.075684,0.420898,-76.354980,75.012207,-71.899414
764,-0.461426,-0.789062,0.493164,-140.869141,33.142090,-45.043945
765,-0.623535,-0.777344,0.506836,-134.216309,0.183105,-39.001465
766,-0.694824,-0.741699,0.536133,-114.868164,-35.156250,-43.701172
767,-0.316895,-0.493652,0.351074,-28.076172,-92.041016,-23.620605
768,-0.146973,-0.492188,0.333008,5.737305,-89.843750,-13.305664
769,-0.057129,-0.518555,0.291992,19.226074,-71.289062,-11.535645
770,-0.041504,-0.488281,0.082520,28.564453,-33.386230,-13.122559
771,-0.089355,-0.534180,0.082520,35.217285,-13.671875,-14.282227
772,-0.169434,-0.561035,0.107910,34.545898,4.943848,-17.700195
773,-0.238281,-0.576172,0.158691,33.020020,15.869141,-18.432617
774,-0.307617,-0.577148,0.220703,29.968262,14.648438,-14.892578
775,-0.431641,-0.657715,0.185547,27.221680,6.408691,10.070801
776,-0.465332,-0.762207,0.173340,18.920898,7.812500,20.141602
777,-0.445312,-0.831543,0.152344,10.986328,12.390137,27.038574
778,-0.364746,-0.974121,0.204590,-10.498047,20.324707,41.198730
779,-0.338867,-1.027344,0.268066,-21.240234,17.395020,44.555664
780,-0.333496,-1.040039,0.331055,-37.475586,9.155273,45.654297
781,-0.361328,-1.061523,0.355469,-72.021484,-12.084961,38.391113
782,-0.318359,-1.124512,0.411133,-74.279785,-26.611328,32.104492
783,-0.318848,-1.149902,0.492188,-74.890137,-44.738770,27.770996
784,-0.280273,-1.316895,0.497070,-49.804688,-79.101562,9.582520
785,-0.105957,-1.198242,0.324707,9.460449,-85.876465,5.187988
786,-0.039062,-1.200195,0.198242,33.752441,-54.382324,7.446289
787,-0.076172,-1.204590,0.145020,34.851074,-4.882812,2.319336
788,-0.270996,-1.234863,0.202637,8.972168,61.279297,-16.845703
789,-0.339355,-1.274902,0.208496,9.460449,62.622070,-21.362305
790,-0.413086,-1.272949,0.193848,16.723633,58.471680,-18.432617
791,-0.494141,-1.253418,0.157715,24.841309,55.725098,-9.582520
792,-0.544434,-1.180664,0.100098,30.456543,56.640625,5.493164
793,-0.535156,-1.041504,-0.045410,43.518066,56.152344,50.842285
794,-0.489258,-1.018555,-0.071289,49.316406,49.194336,71.105957
795,-0.456543,-0.964844,-0.062012,56.579590,14.526367,89.294434
796,-0.534668,-0.985840,-0.155762,45.043945,-5.371094,85.754395
797,-0.606445,-0.941895,-0.311035,38.879395,-7.812500,73.425293
798,-0.716309,-0.842285,-0.282227,14.770508,11.779785,53.710938
799,-0.767090,-0.842773,-0.266602,-14.221191,19.775391,45.349121
800,-0.768555,-0.831055,-0.248535,-47.119141,22.766113,36.682129
801,-0.700195,-0.815430,-0.334961,-60.119629,9.338379,19.409180
802,-0.630371,-0.837402,-0.241699,-48.400879,2.563477,11.413574
803,-0.609863,-0.871582,-0.225098,-25.024414,20.629883,15.625000
804,-0.665039,-0.919922,0.127441,1.037598,61.584473,31.982422
805,-0.929688,-1.055664,1.513184,115.356445,93.566895,108.581543
806,-0.807617,-0.971191,1.104004,75.378418,50.231934,109.008789
807,-0.528320,-0.809570,0.549805,71.716309,5.615234,97.045898
808,-0.272461,-0.636719,0.314453,86.303711,-23.742676,93.383789
809,-0.046875,-0.486328,0.049805,95.092773,-40.649414,92.895508
810,-0.079590,-0.470215,-0.065430,89.965820,-34.484863,81.970215
811,-0.103027,-0.429199,-0.047363,66.833496,-26.367188,67.504883
812,-0.171387,-0.426270,-0.159668,0.000000,-7.324219,39.794922
813,-0.203125,-0.431641,-0.180664,-24.780273,0.854492,26.672363
814,-0.226074,-0.444824,-0.163574,-38.085938,4.455566,14.343262
815,-0.229492,-0.420898,-0.121094,-39.672852,3.051758,2.685547
816,-0.312012,-0.437500,0.055176,-34.118652,-5.798340,-23.498535
817,-0.358398,-0.429688,0.135742,-34.179688,-12.268066,-39.001465
818,-0.399902,-0.452148,0.207031,-28.808594,-17.517090,-54.016113
819,-0.578613,-0.501953,0.465332,-22.277832,-22.583008,-78.674316
820,-0.779297,-0.555664,0.689941,-31.982422,-25.817871,-86.242676
821,-1.004883,-0.685547,0.962402,-42.541504,-28.503418,-91.735840
822,-1.573730,-1.313965,1.637695,-12.512207,-44.677734,-76.477051
823,-1.582520,-1.708008,1.470215,-43.945312,-1.159668,-69.152832
824,-1.122070,-1.304199,0.870117,-104.614258,11.291504,-34.179688
825,-0.732422,-0.826172,0.026367,-43.640137,-29.174805,1.037598
826,-0.641602,-0.589355,-0.209473,-29.479980,-36.437988,4.028320
827,-0.626465,-0.433105,-0.437500,-6.835938,-39.306641,-0.732422
828,-0.513184,-0.433105,-0.449219,32.897949,-40.039062,-10.070801
829,-0.519531,-0.580566,-0.319336,37.475586,-42.968750,-17.883301
830,-0.583008,-0.741211,-0.162109,27.282715,-47.180176,-24.963379
831,-0.729492,-1.029785,0.021484,8.605957,-43.762207,-21.484375
832,-1.049805,-1.982422,0.340332,-93.444824,-5.249023,-5.004883
833,-0.821289,-1.729492,-0.246582,-172.790527,-8.178711,-31.555176
834,-0.646973,-1.379883,-0.499023,-163.696289,-26.367188,-32.592773
835,-0.500977,-0.996094,-0.443359,-76.416016,-53.771973,-33.386230
836,-0.522949,-0.896973,-0.477539,-25.390625,-60.241699,-35.522461
837,-0.512695,-0.811523,-0.390625,23.742676,-60.363770,-38.879395
838,-0.451660,-0.835938,-0.099121,63.781738,-63.415527,-39.550781
839,-0.404785,-0.934570,-0.078613,61.096191,-59.692383,-41.809082
840,-0.378418,-1.000488,-0.032715,48.095703,-49.926758,-47.607422
841,-0.303711,-1.007812,0.245605,-15.563965,-28.198242,-56.152344
842,-0.265137,-0.980957,0.539062,-79.040527,-35.461426,-54.199219
843,-0.239258,-0.876953,0.618164,-147.644043,-54.809570,-47.912598
844,-0.296387,-0.895508,0.508301,-178.466797,-79.467773,-40.405273
845,-0.229004,-0.806152,0.469238,-139.709473,-155.700684,-44.921875
846,-0.140137,-0.683105,0.274414,-96.191406,-166.137695,-40.649414
847,-0.024902,-0.559082,0.167480,-47.180176,-142.883301,-31.982422
848,0.008301,-0.451660,0.152832,15.502930,-70.678711,-11.169434
849,-0.065430,-0.460449,0.098145,31.066895,-49.682617,-13.427734
850,-0.114746,-0.454590,0.094238,43.395996,-36.437988,-18.554688
851,-0.161133,-0.431152,0.117676,51.391602,-27.893066,-18.554688
852,-0.352051,-0.538086,0.131836,36.804199,-25.390625,-9.216309
853,-0.415527,-0.589844,0.088379,31.799316,-25.939941,-3.112793
854,-0.470703,-0.677734,0.048828,27.954102,-22.644043,2.807617
855,-0.481934,-0.763672,0.034180,27.282715,-11.657715,8.361816
856,-0.411621,-0.901855,0.118652,16.784668,10.192871,18.432617
857,-0.354980,-0.949707,0.189453,5.432129,11.657715,27.404785
858,-0.316406,-0.989746,0.268066,-6.286621,2.319336,37.170410
859,-0.246582,-0.991699,0.399902,-37.536621,-28.564453,47.790527
860,-0.253418,-0.999512,0.434570,-52.612305,-37.414551,47.119141
861,-0.246582,-1.042480,0.453613,-67.504883,-42.419434,40.405273
862,-0.405273,-1.104980,0.543457,-91.491699,-54.931641,29.174805
863,-0.506836,-1.168945,0.601074,-96.130371,-62.988281,18.493652
864,-0.583496,-1.198730,0.645508,-82.641602,-76.660156,7.446289
865,-0.536621,-1.020508,0.434570,-14.038086,-86.242676,11.657715
866,-0.364746,-1.022949,0.256836,25.329590,-59.570312,24.047852
867,-0.274414,-1.062012,0.210938,44.128418,-12.023926,32.104492
868,-0.266602,-1.097656,0.134277,40.100098,31.738281,27.832031
869,-0.285645,-1.097168,0.181152,34.667969,72.204590,21.362305
870,-0.343262,-1.176758,0.177246,35.217285,66.162109,20.568848
871,-0.397461,-1.287109,0.208008,41.442871,52.917480,22.216797
872,-0.618652,-1.397949,0.092773,65.612793,21.667480,33.264160
873,-0.699219,-1.359375,0.075684,68.481445,14.831543,47.729492
874,-0.697266,-1.266113,0.001953,62.805176,10.437012,66.162109
875,-0.653809,-1.162109,-0.149414,60.058594,8.850098,76.477051
876,-0.558105,-0.913086,-0.226074,84.777832,10.375977,77.880859
877,-0.560547,-0.857422,-0.263672,93.261719,14.038086,81.970215
878,-0.579102,-0.838867,-0.283203,105.468750,27.343750,87.219238
879,-0.799316,-0.916504,-0.144043,67.077637,79.772949,53.588867
880,-0.858398,-0.831543,-0.039551,15.869141,93.322754,19.592285
881,-0.812988,-0.755859,-0.229980,-23.071289,84.167480,6.103516
882,-0.474609,-0.794434,0.054199,-47.912598,9.643555,17.944336
883,-0.370605,-0.941895,0.088379,-87.036133,-15.075684,10.375977
884,-0.313477,-0.875488,0.208008,-113.952637,-34.790039,-6.896973
885,-0.343750,-0.780762,0.621094,-118.347168,-62.561035,-19.104004
886,-0.782227,-0.936523,0.397949,31.066895,-72.875977,48.645020
887,-0.836914,-1.115723,1.276855,100.952148,35.644531,92.163086
888,-0.585938,-0.854980,0.805664,2.319336,23.376465,73.303223
889,-0.064941,-0.480469,0.132812,46.325684,-15.563965,43.945312
890,0.031738,-0.395020,0.047363,62.683105,-14.221191,43.273926
891,0.011230,-0.332520,0.052734,56.640625,-9.582520,42.724609
892,-0.096191,-0.316406,-0.044434,29.907227,-6.835938,39.978027
893,-0.248047,-0.410156,-0.232422,-7.568359,-2.746582,20.263672
894,-0.254883,-0.438477,-0.245605,-22.705078,-4.882812,10.070801
895,-0.233887,-0.454590,-0.246582,-28.564453,-3.173828,1.770020
896,-0.170898,-0.424805,-0.093262,-25.085449,2.380371,-9.826660
897,-0.169922,-0.403809,-0.053711,-18.676758,-1.037598,-13.122559
898,-0.189941,-0.409180,0.008789,-8.117676,-4.760742,-17.456055
899,-0.296387,-0.408203,0.168945,7.934570,-12.329102,-27.160645
900,-0.404297,-0.426270,0.262695,21.362305,-19.592285,-31.188965
901,-0.518066,-0.448242,0.484375,37.902832,-29.296875,-36.254883
902,-1.160645,-0.915527,2.059570,17.700195,-73.913574,-50.659180
903,-1.753418,-1.490234,2.628906,-47.546387,-90.209961,-77.575684
904,-1.648926,-2.056641,1.916504,-144.226074,-19.836426,-102.111816
905,-0.796875,-1.321777,0.182617,-132.873535,2.136230,-25.085449
906,-0.633789,-0.895020,0.034180,-110.046387,1.220703,-11.657715
907,-0.624512,-0.613770,-0.299316,-77.392578,7.568359,-4.333496
908,-0.637207,-0.353027,-0.469238,-11.535645,13.000488,5.371094
909,-0.656250,-0.449219,-0.447266,12.207031,-0.061035,14.587402
910,-0.761230,-0.717285,-0.249512,21.545410,-14.404297,14.038086
911,-0.928711,-1.086914,0.106934,10.559082,-29.663086,15.136719
912,-1.006348,-1.571289,-0.729980,-141.418457,22.277832,-13.122559
913,-0.857910,-1.395020,-0.597656,-153.686523,28.625488,-28.564453
914,-0.699707,-1.233887,-0.442383,-164.550781,8.972168,-33.447266
915,-0.554199,-1.058105,-0.501953,-101.806641,-22.705078,-70.739746
916,-0.511719,-0.979004,-0.423828,-36.010742,-30.944824,-89.111328
917,-0.398438,-0.873535,-0.347656,30.883789,-40.771484,-97.473145
918,-0.227051,-0.783691,-0.332031,97.839355,-49.255371,-82.275391
919,-0.128418,-0.938477,-0.398438,258.483887,-23.925781,-15.441895
920,-0.307129,-1.159180,0.118652,257.873535,4.699707,-6.408691
921,-0.427734,-1.340820,0.496094,171.142578,26.977539,-34.240723
922,-0.188477,-1.083984,0.419922,-19.653320,67.199707,-90.576172
923,-0.011719,-0.835938,0.411133,-76.782227,68.664551,-83.251953
924,0.068359,-0.642090,0.587891,-116.333008,43.884277,-57.556152
925,0.071777,-0.552734,0.626465,-145.935059,1.403809,-23.620605
926,-0.138672,-0.605957,0.494629,-142.456055,-80.139160,-12.145996
927,-0.101074,-0.481934,0.420898,-119.567871,-112.426758,-20.935059
928,0.005859,-0.387207,0.274414,-42.419434,-131.652832,-27.099609
929,0.011719,-0.399414,0.202637,-6.347656,-114.196777,-31.982422
930,-0.052734,-0.411133,0.169922,15.625000,-84.411621,-36.987305
931,-0.215820,-0.396973,0.220703,34.179688,-29.724121,-36.621094
932,-0.322754,-0.437988,0.253418,38.269043,-12.329102,-26.794434
933,-0.427734,-0.561035,0.337402,33.630371,-5.920410,-16.418457
934,-0.461914,-0.715820,0.229004,34.057617,3.234863,-0.793457
935,-0.500000,-0.814453,0.237793,36.132812,12.023926,3.784180
936,-0.456055,-0.877441,0.223633,33.569336,21.057129,6.835938
937,-0.394531,-1.013184,0.284668,7.873535,23.803711,26.489258
938,-0.368164,-1.070801,0.371582,-7.629395,13.061523,37.475586
939,-0.337402,-1.107422,0.363281,-19.531250,-4.638672,42.602539
940,-0.314941,-1.140625,0.289551,-40.161133,-16.174316,40.344238
941,-0.345703,-1.195801,0.354004,-53.039551,-11.779785,35.644531
942,-0.385742,-1.255859,0.398438,-66.528320,-10.559082,25.573730
943,-0.355469,-1.305664,0.615723,-71.716309,-30.578613,-4.699707
944,-0.296387,-1.106934,0.611816,-61.279297,-55.969238,-4.943848
945,-0.265625,-1.035156,0.454102,2.868652,-66.528320,27.099609
946,-0.214355,-1.088379,0.272949,31.738281,-40.588379,37.475586
947,-0.261230,-1.117188,0.245605,39.306641,-4.821777,41.320801
948,-0.336426,-1.108398,0.163086,41.198730,26.123047,42.602539
949,-0.392090,-1.141113,0.082520,56.152344,50.476074,46.752930
950,-0.431152,-1.444336,0.171875,98.022461,73.120117,45.837402
951,-0.445312,-1.458984,0.228027,107.849121,71.289062,41.259766
952,-0.453613,-1.337891,0.262207,100.830078,68.298340,52.917480
953,-0.470215,-1.238281,0.143066,106.079102,44.860840,89.660645
954,-0.453125,-1.115234,0.143555,107.116699,32.714844,99.060059
955,-0.520996,-1.107422,0.124023,101.196289,21.118164,106.811523
956,-0.642090,-1.024902,-0.110840,78.613281,17.456055,114.379883
957,-0.719727,-0.927246,-0.124512,69.274902,19.348145,111.633301
958,-0.825684,-0.866211,-0.078125,52.917480,19.775391,101.318359
959,-0.866211,-0.799316,-0.084961,24.169922,20.507812,86.120605
960,-0.833008,-0.667480,-0.138184,-33.935547,-0.549316,63.537598
961,-0.829102,-0.660156,-0.231934,-47.790527,-18.066406,53.588867
962,-0.823730,-0.723145,-0.360840,-43.701172,-9.765625,16.723633
963,-0.785645,-0.679199,-0.321777,-47.607422,16.296387,-6.652832
964,-0.680664,-0.573730,-0.221680,-43.457031,47.424316,-19.287109
965,-0.658203,-0.897949,1.357422,113.220215,10.192871,-6.958008
966,-0.369629,-0.857910,0.660156,89.111328,65.429688,13.854980
967,-0.338379,-0.824707,0.810059,64.147949,80.444336,23.925781
968,-0.049805,-0.607422,0.205078,91.857910,17.395020,20.629883
969,-0.009766,-0.501953,0.196289,131.164551,-8.544922,32.897949
970,-0.040039,-0.475586,0.152344,138.854980,-19.226074,41.259766
971,-0.040039,-0.424805,0.031250,129.455566,-12.268066,43.151855
972,-0.060059,-0.412598,-0.049805,113.159180,2.624512,40.649414
973,-0.054688,-0.325195,-0.025879,62.805176,32.714844,28.442383
974,-0.065430,-0.308105,0.016602,29.541016,37.658691,21.850586
975,-0.092285,-0.314453,0.000488,-4.760742,32.775879,12.390137
976,-0.235352,-0.363281,-0.071777,-36.621094,11.413574,-13.366699
977,-0.301758,-0.383789,-0.045898,-43.395996,-1.831055,-29.541016
978,-0.355957,-0.366211,-0.027832,-41.748047,-7.324219,-46.081543
979,-0.408203,-0.314941,0.141602,-35.400391,-8.483887,-59.814453
980,-0.620605,-0.292969,0.905762,-42.541504,-33.569336,-75.073242
981,-0.966309,-0.467773,1.521484,-45.776367,-59.204102,-88.378906
982,-1.650879,-0.946777,2.308594,-84.411621,-71.472168,-117.736816
983,-0.905762,-2.116211,0.580078,-286.499023,101.562500,-129.089355
984,-0.851562,-1.675293,0.373047,-142.639160,83.923340,-57.739258
985,-0.707031,-1.187988,0.312988,-103.759766,44.982910,-22.338867
986,-0.526367,-0.805176,-0.007812,-38.146973,38.330078,-2.441406
987,-0.389648,-0.476074,0.013184,100.585938,18.371582,6.103516
988,-0.344238,-0.567383,0.074219,149.475098,-16.845703,-4.821777
989,-0.557129,-0.848633,0.168457,173.706055,-61.279297,-14.099121
990,-1.093262,-1.762207,0.332520,59.570312,-63.415527,-37.658691
991,-1.066406,-1.878906,-0.140625,-98.876953,-13.549805,-47.912598
992,-1.001465,-1.680176,-0.540039,-180.664062,21.728516,-37.963867
993,-0.820312,-1.236816,-0.425293,-144.165039,0.732422,-16.174316
994,-0.709473,-1.100586,-0.411133,-83.679199,-15.197754,-17.639160
995,-0.614258,-0.984375,-0.373535,-22.094727,-19.531250,-25.634766
996,-0.515625,-0.807617,-0.334961,73.486328,1.525879,-41.748047
997,-0.496582,-0.744141,-0.287598,106.079102,19.470215,-44.921875
998,-0.482910,-0.746094,-0.214355,122.436523,35.644531,-45.593262
999,-0.496582,-0.866699,-0.117676,97.717285,73.242188,-54.443359
1000,-0.461426,-0.877441,-0.069824,61.889648,92.468262,-60.485840
1001,-0.413574,-0.900391,-0.018555,37.841797,105.041504,-60.424805
1002,-0.399902,-0.915527,0.241699,13.977051,89.538574,-66.040039
1003,-0.417480,-0.888184,0.417969,-7.690430,65.917969,-75.073242
1004,-0.428711,-0.779785,0.584961,-47.668457,42.419434,-87.890625
1005,-0.200684,-0.252930,0.505859,-146.484375,-13.427734,-68.847656
1006,-0.145020,-0.177246,0.453613,-134.094238,-48.400879,-38.146973
1007,-0.134277,-0.211914,0.342285,-104.309082,-89.660645,-13.183594
1008,-0.090332,-0.375000,0.198242,-31.311035,-144.836426,-3.234863
1009,-0.049316,-0.380859,0.161133,1.708984,-148.986816,-4.882812
1010,-0.033203,-0.398438,0.184082,17.761230,-137.634277,-8.911133
1011,-0.024902,-0.392578,0.189941,1.342773,-87.158203,-11.718750
1012,-0.036133,-0.418945,0.267090,-15.686035,-61.706543,-4.333496
1013,-0.116699,-0.503906,0.279785,-28.320312,-39.550781,3.906250
1014,-0.390137,-0.716797,0.339355,-31.799316,-9.460449,6.713867
1015,-0.474609,-0.807617,0.346191,-26.062012,0.183105,3.662109
1016,-0.555664,-0.957520,0.409668,-26.489258,10.803223,12.451172
1017,-0.562988,-1.088379,0.455566,-48.461914,5.310059,21.789551
1018,-0.579590,-1.220703,0.357910,-69.641113,-1.403809,29.479980
1019,-0.759277,-1.375977,0.477051,-93.688965,-9.948730,30.090332
1020,-0.827148,-1.485352,0.558105,-92.773438,-28.686523,18.615723
1021,-0.817871,-1.467285,0.594727,-76.721191,-50.231934,-0.915527
1022,-0.462402,-1.197266,0.215332,-1.647949,-67.504883,1.403809
1023,-0.189941,-1.175781,0.110840,41.748047,-35.644531,11.535645
1024,-0.056152,-1.146484,0.139160,60.729980,2.868652,21.423340
1025,-0.065430,-1.127441,0.140137,56.701660,35.766602,23.498535
1026,-0.228516,-1.236328,0.019531,60.546875,79.101562,24.475098
1027,-0.283691,-1.396484,0.105469,81.787109,89.904785,15.136719
1028,-0.394043,-1.442383,0.235352,95.947266,90.881348,5.676270
1029,-0.497559,-1.237793,0.270508,104.309082,68.359375,32.775879
1030,-0.500488,-1.184082,0.314453,107.116699,47.241211,63.415527
1031,-0.500000,-1.068359,0.159180,101.501465,2.258301,107.177734
1032,-0.546387,-1.029785,0.078125,101.501465,-14.770508,114.990234
1033,-0.540039,-0.971680,-0.014160,93.688965,-28.381348,115.661621
1034,-0.618652,-0.917969,-0.106934,80.383301,-33.691406,114.501953
1035,-0.794922,-0.854492,-0.145020,41.381836,-30.029297,105.895996
1036,-0.918457,-0.850098,-0.129883,16.845703,-23.864746,91.735840
1037,-0.923828,-0.814941,-0.143066,-22.155762,-15.747070,64.331055
1038,-0.796387,-0.701172,-0.281738,-87.829590,10.559082,22.521973
1039,-0.734375,-0.683105,-0.411133,-110.717773,25.451660,7.995605
1040,-0.684570,-0.685059,-0.436523,-118.408203,44.006348,-6.164551
1041,-0.606445,-0.663574,-0.407227,-114.501953,56.030273,-17.944336
1042,-0.569824,-0.685547,-0.053711,-67.504883,70.190430,-29.724121
1043,-0.665039,-0.940430,1.035156,-19.409180,41.687012,-32.775879
1044,-0.351562,-0.755371,0.707031,29.541016,50.720215,-6.225586
1045,-0.292969,-0.850098,0.967285,1.708984,49.682617,23.681641
1046,-0.204590,-0.706543,0.222656,42.663574,-4.516602,17.333984
1047,-0.096191,-0.552246,0.123047,95.947266,-32.653809,21.667480
1048,-0.042969,-0.324219,0.044922,129.699707,-30.029297,42.297363
1049,-0.094238,-0.282227,-0.033203,116.333008,-16.235352,42.663574
1050,-0.074707,-0.209473,-0.067871,93.261719,-2.929688,39.611816
1051,-0.078125,-0.179688,-0.154297,53.527832,7.629395,33.813477
1052,-0.135254,-0.214355,-0.161621,39.794922,11.474609,23.742676
1053,-0.256836,-0.303223,-0.078613,23.376465,12.451172,3.295898
1054,-0.282227,-0.386719,0.130859,-21.911621,-6.286621,-44.677734
1055,-0.252930,-0.406250,0.271973,-27.404785,-21.179199,-54.260254
1056,-0.338379,-0.515137,0.535156,-22.949219,-43.762207,-61.035156
1057,-0.888672,-0.911133,1.979004,-31.005859,-114.624023,-102.294922
1058,-1.464844,-1.326660,2.592285,-67.626953,-140.808105,-127.624512
1059,-1.200684,-1.944824,2.143555,-109.924316,-87.951660,-123.107910
1060,-0.791504,-1.525879,0.189453,-102.905273,39.672852,-4.028320
1061,-0.676270,-1.089355,0.031250,-127.624512,92.590332,10.742188
1062,-0.564453,-0.487305,-0.182617,-75.622559,99.304199,14.038086
1063,-0.573730,-0.489746,-0.143555,-32.470703,60.913086,17.761230
1064,-0.689453,-0.614746,-0.123535,3.479004,13.000488,16.540527
1065,-1.225586,-1.385742,0.053711,9.521484,-65.002441,-3.601074
1066,-1.319824,-1.703613,-0.349609,-70.312500,-45.898438,-25.573730
1067,-1.160645,-1.642090,-0.768066,-114.379883,-18.188477,-32.714844
1068,-0.984863,-1.449219,-0.741211,-108.093262,-17.089844,-26.306152
1069,-0.724609,-1.069336,-0.568848,-8.422852,-43.884277,-29.174805
1070,-0.572266,-0.932129,-0.535156,50.903320,-45.288086,-36.682129
1071,-0.442871,-0.853027,-0.493164,95.336914,-29.479980,-45.166016
1072,-0.352051,-0.752930,-0.259766,133.728027,27.221680,-56.884766
1073,-0.319824,-0.757324,-0.159668,117.553711,55.847168,-62.744141
1074,-0.290039,-0.845703,-0.145996,94.848633,80.749512,-68.237305
1075,-0.229492,-0.936523,-0.096680,74.707031,97.106934,-74.096680
1076,-0.123047,-1.022461,0.097656,34.790039,93.566895,-72.448730
1077,-0.110352,-1.046875,0.226074,10.681152,79.650879,-68.115234
1078,-0.117676,-0.986328,0.453613,-20.935059,58.959961,-67.077637
1079,-0.173828,-0.703613,0.613281,-119.079590,1.892090,-51.879883
1080,-0.279297,-0.624023,0.666504,-159.118652,-32.775879,-48.400879
1081,-0.254883,-0.509277,0.480469,-166.992188,-66.528320,-52.612305
1082,-0.198242,-0.303711,0.312500,-107.177734,-133.911133,-40.283203
1083,-0.146484,-0.336426,0.158691,-52.856445,-152.832031,-31.738281
1084,-0.114258,-0.399414,0.096680,-0.671387,-150.451660,-28.381348
1085,-0.149414,-0.375977,0.198242,40.161133,-106.079102,-21.911621
1086,-0.203613,-0.386230,0.282227,39.672852,-84.777832,-14.831543
1087,-0.298340,-0.421875,0.302246,34.912109,-67.016602,-7.629395
1088,-0.381836,-0.482910,0.338379,12.329102,-28.259277,3.479004
1089,-0.415527,-0.630371,0.218750,3.479004,-2.929688,16.662598
1090,-0.425293,-0.740234,0.210938,9.643555,27.160645,24.047852
1091,-0.451660,-0.834473,0.282227,12.512207,50.415039,23.925781
1092,-0.387207,-0.965332,0.435059,2.197266,65.490723,20.874023
1093,-0.376465,-1.053223,0.509277,-11.779785,58.654785,26.672363
1094,-0.369629,-1.259277,0.544922,-43.640137,25.390625,31.555176
1095,-0.427246,-1.283203,0.509277,-48.950195,3.234863,32.775879
1096,-0.528809,-1.395996,0.505859,-50.781250,-14.404297,32.043457
1097,-0.634277,-1.479004,0.579590,-47.668457,-35.156250,19.409180
1098,-0.651367,-1.114746,0.437988,-19.042969,-63.293457,-6.774902
1099,-0.455566,-0.996094,0.206055,8.911133,-49.072266,3.479004
1100,-0.133789,-1.056641,0.174805,52.001953,15.075684,29.846191
1101,-0.107910,-1.035156,0.181152,38.757324,42.724609,38.879395
1102,-0.182617,-1.026855,0.145020,31.127930,56.640625,49.560547
1103,-0.231445,-1.017578,0.085449,48.034668,61.279297,63.354492
1104,-0.340332,-1.319824,0.274902,111.999512,41.076660,78.186035
1105,-0.484375,-1.371582,0.354004,146.728516,24.963379,72.570801
1106,-0.619629,-1.321289,0.382812,166.076660,8.483887,75.622559
1107,-0.672852,-1.250977,0.407715,170.654297,-6.286621,93.933105
1108,-0.715820,-1.324707,0.192871,143.249512,-26.306152,117.553711
1109,-0.736328,-1.256348,-0.069336,118.347168,-17.456055,111.999512
1110,-0.710449,-1.082520,-0.229004,103.759766,-0.427246,104.309082
1111,-0.816406,-0.931152,-0.164062,90.759277,35.644531,90.881348
1112,-0.900879,-0.910645,-0.089355,55.786133,49.804688,70.800781
1113,-0.896484,-0.864746,-0.158203,7.263184,57.434082,46.691895
1114,-0.812500,-0.812988,-0.264160,-18.737793,59.570312,25.634766
1115,-0.607422,-0.707520,-0.209473,-52.856445,37.841797,5.554199
1116,-0.587402,-0.730957,-0.126953,-61.462402,20.812988,1.708984
1117,-0.494629,-0.728516,-0.057617,-79.956055,9.033203,-28.259277
1118,-0.417480,-0.702637,0.129395,-82.641602,5.249023,-38.635254
1119,-0.408691,-0.739258,0.953125,-81.787109,-27.893066,-46.386719
1120,-0.319824,-0.657227,0.358887,17.517090,-30.517578,-19.836426
1121,-0.302734,-0.689941,0.925293,71.594238,54.443359,11.291504
1122,-0.194336,-0.527832,0.923828,26.550293,45.166016,17.761230
1123,-0.101562,-0.517090,0.465820,9.216309,14.648438,13.183594
1124,0.025391,-0.340332,0.107910,65.429688,-20.935059,13.122559
1125,-0.015625,-0.316406,0.090332,66.772461,-21.850586,23.559570
1126,-0.096191,-0.344238,-0.035156,53.649902,-14.709473,27.038574
1127,-0.091797,-0.284668,-0.231934,27.221680,20.874023,17.333984
1128,-0.115234,-0.237305,-0.203613,17.578125,33.020020,11.718750
1129,-0.183594,-0.210449,-0.184570,8.850098,36.376953,5.676270
1130,-0.353516,-0.328613,-0.112305,-2.014160,24.780273,-18.066406
1131,-0.394531,-0.352051,-0.026855,-4.638672,11.962891,-31.555176
1132,-0.439453,-0.379883,0.146973,1.770020,-4.333496,-43.701172
1133,-0.794434,-0.638184,1.545410,12.939453,-74.584961,-83.801270
1134,-1.438965,-1.009766,3.042480,-12.756348,-140.014648,-117.309570
1135,-1.731934,-1.666016,2.509277,-22.460938,-133.178711,-116.577148
1136,-1.002930,-2.445312,1.021973,-253.540039,132.385254,-70.312500
1137,-0.784668,-1.169434,0.171875,-72.082520,64.331055,-9.704590
1138,-0.623047,-0.737793,0.128418,-64.880371,71.899414,2.258301
1139,-0.444824,-0.370605,-0.080078,5.554199,40.710449,8.911133
1140,-0.452637,-0.367676,0.030273,47.058105,4.028320,3.173828
1141,-0.531738,-0.523438,0.019531,55.236816,-38.146973,-8.056641
1142,-0.832031,-1.288086,-0.124023,6.164551,-71.716309,-18.127441
1143,-1.056641,-1.688965,-0.099121,-43.823242,-69.519043,-14.770508
1144,-1.110840,-1.807617,-0.340332,-93.566895,-52.978516,-8.300781
1145,-1.034180,-1.624023,-0.241699,-69.702148,-33.325195,-11.779785
1146,-0.841797,-1.458008,-0.213379,-29.785156,-34.912109,-29.479980
1147,-0.655273,-1.217285,-0.196777,20.019531,-29.174805,-38.330078
1148,-0.477539,-0.863770,-0.197266,113.891602,10.742188,-34.240723
1149,-0.439941,-0.798340,-0.130859,133.117676,38.330078,-33.508301
1150,-0.441895,-0.848145,-0.157227,125.244141,71.411133,-40.954590
1151,-0.363281,-0.912598,0.005859,79.406738,137.756348,-64.514160
1152,-0.290527,-0.932129,0.067383,43.029785,144.470215,-69.763184
1153,-0.255859,-0.969727,0.160645,9.704590,141.784668,-75.805664
1154,-0.233887,-0.965820,0.280273,-19.348145,128.906250,-85.449219
1155,-0.222168,-0.835938,0.538086,-77.941895,77.758789,-105.895996
1156,-0.174316,-0.653320,0.569336,-107.543945,42.846680,-103.332520
1157,-0.125488,-0.483398,0.549316,-126.159668,7.507324,-88.317871
1158,-0.125488,-0.196289,0.611816,-140.625000,-70.800781,-41.381836
1159,-0.104980,-0.114258,0.372070,-126.403809,-108.154297,-16.174316
1160,-0.100586,-0.131348,0.202148,-77.636719,-134.155273,7.324219
1161,-0.132324,-0.316406,0.133301,21.179199,-145.019531,23.376465
1162,-0.168457,-0.391602,0.104980,42.541504,-128.784180,19.226074
1163,-0.259766,-0.401855,0.092285,37.414551,-61.401367,4.089355
1164,-0.249512,-0.398926,0.113281,22.827148,-31.127930,2.502441
1165,-0.276855,-0.463867,0.191406,6.164551,-8.117676,5.798340
1166,-0.305176,-0.535156,0.293457,-16.296387,4.516602,7.934570
1167,-0.310059,-0.660156,0.304688,-47.119141,15.319824,20.874023
1168,-0.353516,-0.786133,0.313965,-47.851562,16.479492,24.780273
1169,-0.375977,-0.910645,0.375488,-44.250488,16.235352,20.812988
1170,-0.495117,-1.174805,0.576172,-56.091309,7.507324,7.446289
1171,-0.562012,-1.232910,0.679199,-75.134277,-6.469727,0.671387
1172,-0.617676,-1.325684,0.705566,-88.745117,-30.761719,-1.220703
1173,-0.686035,-1.389648,0.767578,-78.613281,-67.443848,-5.371094
1174,-0.678223,-1.360352,0.674805,-31.127930,-137.145996,-12.451172
1175,-0.497070,-1.266602,0.333984,-1.525879,-133.605957,-3.540039
1176,-0.306152,-1.141602,0.100098,38.269043,-94.970703,15.258789
1177,-0.206055,-1.012207,0.247559,54.992676,15.380859,48.217773
1178,-0.250488,-0.977539,0.203125,36.865234,45.227051,55.847168
1179,-0.290039,-0.979004,0.160156,42.358398,53.710938,63.659668
1180,-0.365723,-1.242676,0.312012,90.148926,30.273438,82.092285
1181,-0.467773,-1.496094,0.350586,120.117188,10.498047,74.218750
1182,-0.561523,-1.537598,0.434082,136.230469,-3.540039,62.988281
1183,-0.649414,-1.334473,0.351074,126.220703,-7.629395,88.195801
1184,-0.670898,-1.260742,0.279785,116.577148,-6.286621,108.642578
1185,-0.663574,-1.200195,0.134277,102.233887,-12.695312,128.112793
1186,-0.719238,-1.105957,-0.076172,72.692871,-20.629883,128.601074
1187,-0.765137,-1.052246,-0.220703,60.302734,-15.808105,115.295410
1188,-0.793945,-0.986816,-0.214355,44.067383,-5.493164,96.618652
1189,-0.840332,-0.930176,-0.226562,10.375977,9.338379,72.570801
1190,-0.775879,-0.802734,-0.309570,-61.889648,45.593262,17.456055
1191,-0.714355,-0.748535,-0.353027,-78.125000,57.128906,1.525879
1192,-0.659668,-0.763672,-0.316406,-81.115723,60.668945,-8.911133
1193,-0.525879,-0.779785,-0.284180,-78.247070,54.565430,-28.991699
1194,-0.472656,-0.781738,-0.105469,-65.673828,45.227051,-40.527344
1195,-0.420410,-0.762207,-0.016602,-54.748535,34.606934,-51.025391
1196,-0.372070,-0.885254,1.080078,2.990723,-19.409180,-66.101074
1197,-0.134277,-0.673828,0.787598,52.673340,-38.452148,-54.992676
1198,0.015625,-0.721680,0.905273,98.388672,35.644531,-15.869141
1199,-0.017578,-0.543457,0.760254,-8.117676,24.536133,6.958008
1200,-0.086426,-0.525391,0.482422,28.015137,-35.949707,-2.685547
1201,0.003418,-0.340820,0.226074,38.330078,-35.339355,3.845215
1202,-0.120605,-0.260742,0.033203,29.968262,-18.737793,14.953613
1203,-0.213379,-0.249512,0.006836,15.014648,-11.596680,21.179199
1204,-0.267578,-0.224609,-0.065918,-2.563477,-9.033203,22.705078
1205,-0.379395,-0.245117,-0.192383,-26.367188,3.356934,19.775391
1206,-0.390137,-0.275391,-0.214355,-42.236328,11.718750,10.009766
1207,-0.415039,-0.300781,-0.207031,-57.495117,19.531250,-6.225586
1208,-0.477051,-0.329590,-0.215332,-65.734863,24.047852,-23.254395
1209,-0.638672,-0.456055,-0.156250,-55.664062,31.555176,-54.138184
1210,-0.767578,-0.660645,0.025879,-39.367676,29.357910,-71.899414
1211,-0.959961,-0.977051,0.708984,-7.324219,-1.831055,-97.290039
1212,-1.066895,-1.997559,1.880371,-37.719727,-150.756836,-135.314941
1213,-0.249023,-1.799805,0.897461,-182.617188,62.561035,-62.805176
1214,-0.766113,-1.705566,-0.038086,-183.288574,121.276855,-26.245117
1215,-0.499512,-0.766113,0.175781,107.604980,27.709961,-14.160156
1216,-0.280762,-0.476074,0.178711,148.803711,12.207031,-13.793945
1217,-0.179199,-0.426758,0.219238,180.297852,-7.202148,-9.155273
1218,-0.424316,-0.894531,0.714355,142.944336,-65.734863,-4.516602
1219,-0.754395,-1.315430,0.826660,75.012207,-88.867188,1.708984
1220,-0.903809,-1.736328,0.425781,-48.583984,-72.509766,7.690430
1221,-0.934082,-1.827148,-0.256348,-125.976562,-23.559570,18.798828
1222,-1.053223,-1.550293,-0.271484,-123.291016,-16.601562,19.653320
1223,-0.907227,-1.375977,-0.359375,-93.444824,-29.235840,9.948730
1224,-0.758789,-1.163574,-0.344727,-61.157227,-25.085449,1.586914
1225,-0.561035,-0.804688,-0.258301,-1.037598,5.004883,-25.634766
1226,-0.449707,-0.669434,-0.234375,23.376465,16.967773,-32.409668
1227,-0.367188,-0.545898,-0.425781,57.617188,58.532715,-23.620605
1228,-0.390625,-0.550293,-0.303711,67.504883,82.702637,-19.104004
1229,-0.380859,-0.594727,-0.158691,62.622070,90.637207,-15.686035
1230,-0.339355,-0.671875,-0.111816,67.871094,79.040527,-8.544922
1231,-0.338867,-0.788574,0.134766,68.359375,64.697266,-14.221191
1232,-0.373535,-0.845703,0.195312,62.988281,47.424316,-26.794434
1233,-0.499512,-0.950684,0.321777,41.015625,17.028809,-82.641602
1234,-0.446289,-0.785156,0.416992,12.878418,0.122070,-106.201172
1235,-0.331055,-0.660645,0.411133,-19.287109,-13.793945,-111.389160
1236,-0.097656,-0.387207,0.278809,-37.658691,-21.789551,-72.570801
1237,-0.030273,-0.302734,0.301758,-39.733887,-22.888184,-42.846680
1238,0.035645,-0.253906,0.263184,-37.414551,-28.076172,7.568359
1239,0.002441,-0.266602,0.309082,-24.780273,-37.231445,26.062012
1240,-0.083008,-0.317383,0.356934,-15.258789,-49.987793,35.949707
1241,-0.292969,-0.440918,0.267578,-8.239746,-48.339844,34.301758
1242,-0.421875,-0.527832,0.280762,-17.883301,-27.343750,30.944824
1243,-0.492188,-0.642090,0.410645,-34.729004,-6.347656,22.644043
1244,-0.469727,-0.728027,0.493164,-54.321289,5.676270,12.329102
1245,-0.435547,-0.957520,0.546387,-62.988281,2.990723,2.197266
1246,-0.416992,-1.077637,0.613281,-65.673828,-4.394531,-5.371094
1247,-0.395996,-1.173828,0.632812,-71.899414,-11.962891,-12.084961
1248,-0.439453,-1.298340,0.732422,-71.777344,-29.602051,-14.282227
1249,-0.578125,-1.345215,0.818359,-66.711426,-51.940918,-7.507324
1250,-0.810059,-1.256348,0.776855,-46.752930,-88.134766,2.746582
1251,-0.750000,-1.097168,0.490234,-21.545410,-81.359863,9.887695
1252,-0.574707,-0.931641,0.241699,8.972168,-51.208496,16.906738
1253,-0.359863,-0.804199,0.184570,33.752441,-13.244629,31.616211
1254,-0.282715,-0.818848,0.223633,48.645020,16.845703,48.645020
1255,-0.336426,-0.890625,0.260254,47.241211,48.339844,57.983398
1256,-0.369141,-0.940918,0.274414,58.349609,44.616699,66.528320
1257,-0.445801,-1.272949,0.377441,101.562500,12.939453,82.702637
1258,-0.590820,-1.474609,0.495605,120.117188,-0.366211,74.157715
1259,-0.693848,-1.514160,0.546875,123.718262,-16.418457,62.072754
1260,-0.631348,-1.295410,0.176270,115.478516,-2.441406,76.232910
1261,-0.629395,-1.199707,0.098145,112.365723,7.812500,96.435547
1262,-0.646973,-1.141602,-0.008301,108.520508,14.770508,107.116699
1263,-0.687012,-1.088867,-0.060547,101.806641,16.052246,108.520508
1264,-0.661621,-1.037598,-0.035156,51.635742,3.051758,97.045898
1265,-0.695801,-1.057617,-0.173828,4.089355,-4.943848,82.519531
1266,-0.684570,-1.031250,-0.249023,-36.071777,0.427246,59.020996
1267,-0.644531,-0.895020,-0.267578,-105.773926,19.470215,23.315430
1268,-0.625488,-0.872070,-0.287598,-128.112793,26.489258,7.202148
1269,-0.582520,-0.847656,-0.308105,-130.126953,29.907227,-8.789062
1270,-0.501465,-0.788574,-0.273926,-85.021973,29.052734,-27.648926
1271,-0.500000,-0.718262,-0.120605,-57.434082,24.169922,-38.024902
1272,-0.484863,-0.638184,0.106934,-6.958008,14.709473,-53.588867
1273,-0.433594,-0.701172,0.616699,26.550293,8.117676,-58.288574
1274,-0.228516,-0.650879,0.928711,85.510254,-15.686035,-55.419922
1275,-0.045410,-0.684082,1.122070,99.975586,30.883789,-26.062012
1276,-0.179199,-0.582031,0.920898,6.103516,-9.704590,-10.192871
1277,-0.009277,-0.419434,0.389160,20.263672,-49.987793,-19.836426
1278,-0.035156,-0.445312,0.263184,20.874023,-36.254883,-11.962891
1279,-0.061523,-0.223145,0.001465,62.377930,-21.728516,11.962891
1280,-0.156738,-0.227539,-0.030762,57.434082,-14.465332,24.291992
1281,-0.224609,-0.190430,-0.113281,43.212891,-3.173828,30.822754
1282,-0.409180,-0.272461,-0.210938,17.333984,28.381348,28.686523
1283,-0.480957,-0.349121,-0.208496,3.662109,42.114258,14.892578
1284,-0.523438,-0.377441,-0.183105,-10.314941,52.734375,-5.004883
1285,-0.562500,-0.413574,-0.144531,-13.793945,57.189941,-40.954590
1286,-0.687988,-0.598145,0.111816,-6.530762,49.255371,-55.236816
1287,-0.787109,-0.848145,0.582520,-2.807617,24.963379,-71.777344
1288,-1.725586,-1.958008,3.388672,-49.926758,-127.136230,-111.389160
1289,-0.986328,-2.229004,1.706543,-244.934082,-85.205078,-131.896973
1290,-0.497559,-1.601562,-0.113770,-265.930176,85.571289,-72.387695
1291,-0.875977,-1.152344,-0.102051,-86.975098,119.506836,-16.601562
1292,-0.525391,-0.539551,0.412109,112.182617,14.465332,-2.685547
1293,-0.340820,-0.424316,0.373535,161.376953,-2.929688,-4.638672
1294,-0.169434,-0.404785,0.379883,193.420410,-25.512695,-3.295898
1295,-0.379395,-0.913086,0.692383,144.714355,-79.406738,1.098633
1296,-0.628418,-1.262695,0.624512,67.077637,-93.994141,-3.051758
1297,-0.812988,-1.622070,0.413574,-22.216797,-72.814941,-8.544922
1298,-0.849609,-1.631836,-0.427246,-124.694824,16.601562,-1.708984
1299,-0.843262,-1.421387,-0.326172,-97.656250,21.484375,6.469727
1300,-0.734863,-1.243652,-0.240723,-59.082031,8.178711,7.080078
1301,-0.629395,-1.078613,-0.159180,-19.470215,-2.197266,9.338379
1302,-0.597656,-0.863281,-0.137207,22.827148,-0.793457,-3.784180
1303,-0.588867,-0.802734,-0.222168,38.696289,11.657715,-19.775391
1304,-0.496582,-0.742676,-0.294922,71.716309,57.495117,-51.208496
1305,-0.449219,-0.744629,-0.226074,78.491211,80.139160,-58.288574
1306,-0.401367,-0.790527,-0.102051,73.669434,93.139648,-58.654785
1307,-0.366699,-0.873047,0.023926,61.706543,93.994141,-52.124023
1308,-0.358887,-1.064453,0.210449,23.132324,70.800781,-52.062988
1309,-0.354492,-1.084473,0.279297,1.159668,56.335449,-63.598633
1310,-0.348145,-1.019043,0.376465,-20.690918,40.893555,-77.575684
1311,-0.295898,-0.693359,0.495117,-76.293945,4.882812,-89.172363
1312,-0.229980,-0.524902,0.418457,-98.083496,-9.033203,-80.749512
1313,-0.160156,-0.374512,0.337891,-101.684570,-22.888184,-61.950684
1314,-0.105469,-0.224121,0.302246,-76.354980,-52.490234,-14.892578
1315,-0.142090,-0.224609,0.287109,-55.969238,-65.490723,1.892090
1316,-0.198242,-0.246094,0.309570,-37.780762,-77.575684,12.145996
1317,-0.265625,-0.323730,0.323242,-20.324707,-93.322754,9.399414
1318,-0.291992,-0.416992,0.279785,-15.197754,-91.430664,4.821777
1319,-0.284668,-0.450684,0.246094,-12.756348,-81.420898,2.075195
1320,-0.266602,-0.520508,0.268555,-21.118164,-39.306641,13.610840
1321,-0.269531,-0.615234,0.299805,-28.808594,-16.418457,23.803711
1322,-0.293945,-0.717285,0.329102,-30.334473,1.281738,28.991699
1323,-0.380859,-0.885742,0.376465,-27.526855,18.310547,16.479492
1324,-0.415039,-0.939941,0.426758,-25.329590,21.057129,8.544922
1325,-0.448730,-0.993652,0.487305,-29.052734,21.606445,3.784180
1326,-0.515625,-1.063477,0.593262,-39.367676,14.953613,5.187988
1327,-0.730469,-1.320312,0.809570,-61.706543,-33.996582,5.432129
1328,-0.865234,-1.391602,0.884766,-68.847656,-65.917969,-6.225586
1329,-0.598145,-1.183105,0.448730,-33.081055,-86.791992,-20.874023
1330,-0.356934,-1.125000,0.216797,7.568359,-60.729980,-8.300781
1331,-0.173340,-1.113770,0.178223,38.635254,-16.601562,9.582520
1332,-0.084473,-1.123535,0.296387,33.691406,51.086426,20.080566
1333,-0.101562,-1.009277,0.379883,9.948730,56.823730,25.390625
1334,-0.177734,-0.970215,0.299805,3.784180,48.522949,43.945312
1335,-0.274414,-1.203613,0.423828,41.015625,7.019043,69.213867
1336,-0.409180,-1.375000,0.496094,73.059082,-25.085449,69.274902
1337,-0.571289,-1.357422,0.501465,94.604492,-55.480957,64.880371
1338,-0.616699,-1.133301,0.186523,98.388672,-48.767090,73.669434
1339,-0.588379,-1.056152,0.172363,92.407227,-26.184082,84.594727
1340,-0.591309,-0.970703,0.188965,75.744629,-12.817383,96.496582
1341,-0.610352,-0.937500,0.062012,67.016602,-4.394531,104.064941
1342,-0.673828,-0.916504,-0.081543,64.392090,-3.723145,118.896484
1343,-0.770508,-0.952637,-0.119141,62.805176,2.197266,118.713379
1344,-0.900391,-1.000000,-0.097168,8.850098,20.446777,79.650879
1345,-0.893555,-0.999023,-0.214355,-31.311035,31.738281,50.598145
1346,-0.838379,-0.952148,-0.271973,-56.640625,45.104980,23.986816
1347,-0.727051,-0.867188,-0.409668,-67.932129,59.875488,-0.488281
1348,-0.707031,-0.883789,-0.412598,-49.682617,65.856934,-6.591797
1349,-0.662109,-0.823730,-0.208008,-33.813477,66.894531,-16.418457
1350,-0.548828,-0.790039,0.007812,-38.757324,39.001465,-43.395996
1351,-0.462891,-0.738281,0.128418,-34.729004,28.259277,-59.143066
1352,-0.366699,-0.693359,0.436035,-26.428223,17.028809,-67.260742
1353,-0.066406,-0.580566,0.986816,79.345703,34.667969,-7.934570
1354,-0.119629,-0.613770,1.380859,57.983398,47.790527,16.296387
1355,-0.161621,-0.577637,0.756836,10.498047,14.099121,11.413574
1356,-0.137695,-0.428711,0.205566,78.918457,-29.907227,20.019531
1357,-0.103027,-0.373535,0.097656,95.825195,-21.118164,26.184082
1358,-0.125977,-0.206055,0.017578,100.280762,-7.141113,30.639648
1359,-0.128906,-0.205078,0.040527,82.763672,-4.394531,29.846191
1360,-0.158203,-0.202148,-0.006836,57.250977,2.380371,22.766113
1361,-0.212891,-0.261719,-0.044922,31.738281,10.742188,12.329102
1362,-0.370117,-0.444824,-0.011230,-12.939453,9.216309,-25.146484
1363,-0.418457,-0.540527,0.086914,-31.066895,2.014160,-45.227051
1364,-0.465332,-0.617188,0.273438,-49.377441,-7.385254,-67.626953
1365,-0.530273,-0.639160,0.653809,-71.838379,-24.902344,-89.416504
1366,-0.987305,-0.827637,2.389648,-82.214355,-115.844727,-116.577148
1367,-1.250488,-1.722168,2.829590,-80.627441,-136.047363,-106.323242
1368,-1.006836,-1.690918,-0.329102,-129.821777,-6.530762,0.854492
1369,-0.886230,-1.241699,0.072266,-67.199707,38.391113,18.432617
1370,-0.829590,-0.791992,0.012207,-52.673340,71.716309,16.357422
1371,-0.657227,-0.460449,0.046387,15.502930,42.175293,9.521484
1372,-0.636719,-0.547363,0.066895,45.715332,5.493164,-0.061035
1373,-0.641113,-0.728027,0.074219,49.072266,-26.489258,-12.939453
1374,-0.905273,-1.448242,0.268555,-9.094238,-55.603027,-19.348145
1375,-0.816895,-1.688965,-0.514648,-101.196289,-20.202637,-12.451172
1376,-0.785156,-1.549316,-0.511719,-62.988281,-18.676758,-13.366699
1377,-0.689941,-1.300781,-0.382812,-8.483887,-24.169922,-15.502930
1378,-0.470215,-0.990723,-0.158691,74.523926,-12.817383,-19.531250
1379,-0.406738,-0.896973,-0.040039,84.106445,3.479004,-31.311035
1380,-0.341309,-0.834961,-0.016602,81.604004,22.277832,-43.579102
1381,-0.257812,-0.806152,-0.049316,59.631348,70.861816,-61.645508
1382,-0.244141,-0.816406,-0.025879,47.424316,90.759277,-61.889648
1383,-0.205566,-0.883789,0.019531,36.499023,98.510742,-60.485840
1384,-0.141113,-1.012207,0.023926,30.761719,84.472656,-59.020996
1385,-0.121094,-1.021484,0.104004,26.611328,73.730469,-60.607910
1386,-0.063477,-0.957520,0.289062,-27.221680,35.583496,-67.932129
1387,-0.051758,-0.865234,0.422852,-64.697266,4.272461,-63.781738
1388,-0.069336,-0.766602,0.472656,-116.516113,-27.465820,-56.579590
1389,-0.111328,-0.484863,0.503906,-177.429199,-76.965332,-44.433594
1390,-0.185059,-0.389648,0.345703,-188.171387,-104.919434,-41.198730
1391,-0.195312,-0.320312,0.236816,-162.292480,-123.840332,-38.513184
1392,-0.236328,-0.394531,0.292969,-85.144043,-136.596680,-34.118652
1393,-0.233887,-0.410156,0.332031,-60.363770,-125.671387,-30.639648
1394,-0.261230,-0.447754,0.344238,-44.006348,-105.285645,-20.690918
1395,-0.372559,-0.494141,0.337402,-14.770508,-55.969238,6.225586
1396,-0.412598,-0.509766,0.314453,2.624512,-33.203125,19.531250
1397,-0.451660,-0.635742,0.352051,19.653320,-3.845215,31.005859
1398,-0.447754,-0.698730,0.339355,21.362305,3.967285,31.616211
1399,-0.422363,-0.771484,0.335938,23.010254,9.277344,33.996582
1400,-0.380859,-0.960449,0.331543,18.188477,14.587402,38.024902
1401,-0.340820,-1.048828,0.359863,13.366699,15.258789,40.466309
1402,-0.347168,-1.154785,0.440430,2.258301,14.099121,39.672852
1403,-0.349121,-1.287598,0.518066,-16.296387,4.394531,34.240723
1404,-0.313477,-1.533691,0.611328,-38.452148,-34.240723,5.493164
1405,-0.270020,-1.454590,0.617676,-34.362793,-60.485840,-5.737305
1406,-0.170410,-1.343262,0.266602,2.563477,-71.105957,1.037598
1407,-0.077637,-1.352051,0.121582,19.104004,-37.048340,6.896973
1408,-0.088867,-1.339844,0.130371,19.531250,11.169434,9.826660
1409,-0.196777,-1.309570,0.136230,4.516602,46.508789,5.798340
1410,-0.265625,-1.195801,0.171387,24.291992,56.396484,6.958008
1411,-0.274414,-1.133301,0.211914,46.264648,43.884277,17.517090
1412,-0.313477,-1.083008,0.228027,67.199707,29.846191,35.461426
1413,-0.453613,-0.996582,0.308105,84.533691,10.559082,88.989258
1414,-0.509766,-0.979492,0.325195,83.496094,-2.258301,113.220215
1415,-0.564453,-1.002441,0.311035,83.435059,-24.475098,130.432129
1416,-0.729004,-1.113281,0.229980,71.044922,-71.044922,134.094238
1417,-0.836914,-1.167480,0.026855,43.090820,-77.209473,122.924805
1418,-0.953125,-1.181152,-0.062500,7.629395,-63.842773,101.074219
1419,-0.934082,-1.117676,-0.182617,-37.414551,-39.184570,72.326660
1420,-0.831055,-0.853516,-0.263672,-104.492188,9.582520,40.466309
1421,-0.763672,-0.753418,-0.288086,-121.643066,29.052734,38.085938
1422,-0.674316,-0.637695,-0.373535,-116.027832,53.894043,40.344238
1423,-0.689941,-0.630371,-0.407715,-91.857910,64.941406,39.245605
1424,-0.663574,-0.600098,-0.413574,-62.194824,69.091797,33.447266
1425,-0.591797,-0.507812,-0.276855,6.958008,69.091797,18.249512
1426,-0.541016,-0.467773,-0.146973,36.926270,78.552246,23.681641
1427,-0.450684,-0.463867,-0.010742,116.149902,113.769531,55.236816
1428,-0.384766,-0.560547,0.838867,146.606445,67.382812,76.293945
1429,-0.294922,-0.560547,0.820312,56.518555,58.593750,71.044922
1430,-0.195312,-0.554199,0.541504,30.395508,25.573730,56.823730
1431,-0.122070,-0.479004,0.250488,19.775391,7.080078,35.644531
1432,-0.120117,-0.438965,0.107422,17.395020,1.770020,27.893066
1433,-0.126465,-0.423340,-0.019043,24.780273,-4.150391,18.859863
1434,-0.103027,-0.351074,-0.085449,37.597656,-9.277344,0.244141
1435,-0.144043,-0.372559,-0.090820,38.024902,-8.850098,-6.774902
1436,-0.221680,-0.417969,-0.053223,33.020020,-7.873535,-18.737793
1437,-0.280273,-0.454102,0.027344,24.108887,-9.338379,-35.888672
1438,-0.432129,-0.551758,0.090820,24.475098,-8.850098,-75.317383
1439,-0.567383,-0.625488,0.312500,35.095215,-6.103516,-98.571777
1440,-0.713379,-0.746094,0.836426,43.762207,-16.540527,-123.229980
1441,-1.399902,-1.488281,2.924805,114.624023,-111.145020,-129.028320
1442,-1.059570,-1.547852,1.831543,-124.450684,75.012207,-44.616699
1443,-1.236816,-1.912598,-0.082031,-165.466309,111.694336,-16.174316
1444,-0.766113,-0.999023,0.250977,-35.827637,100.769043,11.779785
1445,-0.681152,-0.737793,0.121582,-69.030762,46.081543,17.150879
1446,-0.691895,-0.534668,-0.144043,-69.274902,-1.892090,21.179199
1447,-0.799316,-0.510254,-0.330078,-58.410645,-32.775879,28.625488
1448,-1.284180,-1.006348,-0.318848,-19.531250,-53.405762,53.466797
1449,-1.405762,-1.330566,-0.215820,-61.584473,-44.311523,46.875000
1450,-1.262207,-1.444824,-0.476074,-117.797852,-34.423828,15.075684
1451,-0.773438,-1.204590,-0.505371,-97.167969,-50.537109,-52.124023
1452,-0.612793,-1.093750,-0.462402,-51.147461,-72.387695,-75.866699
1453,-0.496582,-0.997559,-0.425781,2.929688,-90.515137,-94.543457
1454,-0.343262,-0.867188,-0.367188,83.679199,-98.266602,-109.741211
1455,-0.293457,-0.858887,-0.369629,107.604980,-83.618164,-107.177734
1456,-0.231934,-0.816406,-0.337891,123.291016,-59.509277,-100.708008
1457,-0.179199,-0.812012,-0.305176,132.446289,-29.968262,-90.148926
1458,-0.143555,-0.891602,-0.096191,82.031250,29.968262,-66.406250
1459,-0.121094,-0.901367,-0.135742,55.603027,58.410645,-49.316406
1460,-0.243652,-0.902832,0.006836,27.709961,92.895508,-32.226562
1461,-0.281738,-0.870605,0.139160,19.714355,93.017578,-34.606934
1462,-0.286621,-0.821289,0.264160,5.798340,85.021973,-40.649414
1463,-0.209961,-0.642578,0.456055,-64.575195,55.725098,-52.429199
1464,-0.195312,-0.517090,0.608398,-111.206055,37.597656,-54.992676
1465,-0.192383,-0.338379,0.713867,-129.882812,-6.286621,-51.574707
1466,-0.132812,-0.294434,0.247070,-40.954590,-98.937988,-26.000977
1467,-0.148438,-0.320312,0.321777,2.746582,-123.107910,-21.850586
1468,-0.180176,-0.359375,0.388672,48.217773,-139.526367,-12.268066
1469,-0.216797,-0.374023,0.428223,60.485840,-133.666992,-4.089355
1470,-0.223145,-0.350098,0.442383,57.800293,-118.469238,6.652832
1471,-0.404297,-0.431152,0.455078,27.465820,-68.908691,36.499023
1472,-0.524414,-0.565430,0.507324,-0.366211,-37.902832,45.410156
1473,-0.644531,-0.762207,0.523926,-28.808594,-11.535645,42.663574
1474,-0.646484,-0.973633,0.403809,-64.392090,19.348145,26.855469
1475,-0.577637,-1.049316,0.323730,-70.678711,31.738281,36.254883
1476,-0.557617,-1.179688,0.355957,-68.542480,38.208008,50.964355
1477,-0.569824,-1.687500,0.540527,-56.396484,19.226074,43.762207
1478,-0.468750,-1.737305,0.572754,-38.452148,-9.094238,12.329102
1479,-0.397461,-1.418457,0.528320,-11.413574,-39.062500,-0.854492
1480,-0.301270,-1.127441,0.361328,14.709473,-52.062988,10.803223
1481,-0.165039,-0.935547,0.347656,38.269043,-37.719727,42.541504
1482,-0.159668,-0.958008,0.299316,28.747559,-18.005371,41.931152
1483,-0.156738,-0.943359,0.248047,17.639160,6.591797,36.987305
1484,-0.208984,-1.021973,0.263184,27.954102,30.700684,44.128418
1485,-0.237305,-1.186523,0.268066,53.955078,30.212402,48.278809
1486,-0.363281,-1.405273,0.343750,86.181641,27.099609,40.100098
1487,-0.562988,-1.404785,0.517578,104.797363,3.723145,28.991699
1488,-0.634277,-1.321777,0.340332,111.877441,-4.638672,42.358398
1489,-0.703613,-1.241699,0.227539,115.661621,1.770020,60.363770
1490,-0.798828,-1.129395,0.134277,68.847656,16.540527,86.669922
1491,-0.799316,-1.097656,-0.056641,42.358398,21.423340,86.303711
1492,-0.815430,-0.972168,-0.097656,0.183105,33.264160,67.443848
1493,-0.778809,-0.914062,-0.073730,-36.315918,31.250000,57.983398
1494,-0.799805,-0.879395,-0.147461,-70.495605,26.611328,49.682617
1495,-0.785645,-0.785645,-0.227051,-115.600586,18.432617,34.301758
1496,-0.759766,-0.773438,-0.292480,-132.629395,15.075684,30.761719
1497,-0.748047,-0.789551,-0.395508,-134.216309,16.845703,22.644043
1498,-0.733887,-0.740234,-0.427734,-120.910645,26.489258,9.277344
1499,-0.599609,-0.559570,-0.296387,-58.898926,34.240723,-17.272949
1500,-0.524902,-0.506348,-0.227051,-1.770020,46.142578,-17.883301
1501,-0.434082,-0.606934,1.041992,209.289551,133.728027,58.532715
1502,-0.496582,-0.675293,1.352051,152.038574,73.669434,60.119629
1503,-0.095215,-0.508301,0.805664,74.279785,58.166504,57.434082
1504,-0.143555,-0.625488,0.575195,40.893555,25.878906,43.884277
1505,-0.092285,-0.484863,0.114746,29.052734,15.808105,31.494141
1506,-0.086426,-0.437012,0.006836,29.663086,19.042969,26.184082
1507,-0.092285,-0.369141,-0.038086,18.371582,22.216797,15.380859
1508,-0.104980,-0.315918,-0.071289,15.075684,18.554688,11.779785
1509,-0.144531,-0.302734,-0.111328,13.244629,13.916016,9.094238
1510,-0.298340,-0.388672,-0.117188,14.587402,6.286621,-12.451172
1511,-0.395508,-0.437012,-0.102539,14.404297,4.089355,-29.357910
1512,-0.507812,-0.502441,-0.111816,21.179199,6.713867,-53.710938
1513,-0.584473,-0.531250,0.012207,32.043457,13.366699,-81.359863
1514,-0.714355,-0.547363,0.622070,21.423340,7.507324,-136.962891
1515,-0.757324,-0.604004,1.011230,24.169922,-20.202637,-146.850586
1516,-1.021484,-0.764160,1.838379,72.692871,-66.650391,-137.207031
1517,-1.401367,-1.880371,1.998535,-61.340332,57.128906,-19.592285
1518,-1.095215,-2.041504,-0.095703,-140.747070,88.623047,-0.061035
1519,-0.833496,-1.390625,-0.606445,-40.466309,107.360840,3.051758
1520,-0.619141,-0.872070,0.136230,-6.347656,106.201172,4.821777
1521,-0.458984,-0.349609,0.029785,-2.197266,12.512207,6.347656
1522,-0.513184,-0.308594,0.002441,28.564453,-28.381348,0.427246
1523,-0.970703,-0.766602,0.104980,48.400879,-84.167480,-3.723145
1524,-1.312988,-1.253906,0.469727,47.790527,-82.275391,7.812500
1525,-1.284668,-1.562500,0.421875,-91.491699,-62.622070,4.089355
1526,-1.074219,-1.558105,-0.321289,-175.231934,-48.889160,-2.502441
1527,-0.835449,-1.312988,-0.490723,-109.863281,-53.100586,-24.719238
1528,-0.734863,-1.189453,-0.381348,-47.851562,-72.265625,-43.823242
1529,-0.608887,-1.048828,-0.314453,10.498047,-84.716797,-61.218262
1530,-0.402832,-0.878906,-0.293945,92.407227,-62.561035,-78.430176
1531,-0.314453,-0.811035,-0.258301,112.365723,-31.433105,-77.087402
1532,-0.254395,-0.791016,-0.214355,123.657227,31.433105,-53.894043
1533,-0.259766,-0.874023,-0.225098,122.436523,54.931641,-41.748047
1534,-0.292969,-0.985840,-0.136230,105.651855,76.477051,-37.170410
1535,-0.218262,-1.000977,0.036621,30.029297,111.938477,-57.861328
1536,-0.172852,-0.941895,0.174805,-3.234863,117.004395,-60.546875
1537,-0.128418,-0.721191,0.382324,-58.898926,90.515137,-55.114746
1538,-0.126953,-0.634277,0.340332,-73.669434,67.565918,-51.879883
1539,-0.177734,-0.557129,0.366211,-80.932617,43.029785,-50.231934
1540,-0.170898,-0.448242,0.361328,-77.575684,-17.333984,-53.161621
1541,-0.127441,-0.397949,0.351074,-61.889648,-47.302246,-52.856445
1542,-0.115723,-0.360352,0.349609,-41.259766,-75.012207,-49.011230
1543,-0.214355,-0.288086,0.372559,-15.563965,-113.891602,-31.127930
1544,-0.277832,-0.307617,0.344238,-12.084961,-122.619629,-18.249512
1545,-0.322754,-0.330078,0.302734,-6.408691,-109.069824,6.225586
1546,-0.369141,-0.422363,0.318359,-6.408691,-89.721680,18.493652
1547,-0.389648,-0.495117,0.408691,-16.723633,-69.091797,28.503418
1548,-0.465820,-0.691895,0.424316,-30.944824,-31.982422,40.039062
1549,-0.550781,-0.861816,0.431152,-36.865234,-12.329102,36.071777
1550,-0.625000,-1.015625,0.439453,-43.640137,7.751465,25.512695
1551,-0.637695,-1.128418,0.471680,-49.621582,23.864746,12.878418
1552,-0.665527,-1.312988,0.686035,-58.410645,28.503418,0.000000
1553,-0.721680,-1.449219,0.814453,-62.316895,10.620117,-8.056641
1554,-0.716797,-1.473145,0.867188,-36.621094,-50.415039,-24.780273
1555,-0.472168,-1.075195,0.411621,-13.000488,-59.143066,-12.390137
1556,-0.253906,-0.944824,0.213379,22.094727,-44.067383,10.559082
1557,-0.112305,-0.914551,0.170898,50.231934,-20.690918,37.414551
1558,-0.152832,-0.985352,0.215820,48.706055,31.066895,54.382324
1559,-0.188477,-0.957031,0.248047,35.034180,39.855957,57.617188
1560,-0.214844,-1.003906,0.269531,43.029785,34.667969,69.824219
1561,-0.302734,-1.421387,0.376465,101.745605,-4.150391,77.514648
1562,-0.480957,-1.589844,0.544922,125.671387,-20.935059,59.631348
1563,-0.611328,-1.501465,0.504883,127.014160,-33.325195,48.950195
1564,-0.656250,-1.386719,0.312012,127.624512,-24.780273,56.030273
1565,-0.656738,-1.208496,0.282227,111.145020,2.685547,90.698242
1566,-0.635254,-1.166992,0.195801,88.745117,7.446289,96.435547
1567,-0.638672,-1.116699,0.178711,63.476562,3.540039,97.229004
1568,-0.734863,-1.107910,-0.164062,-5.004883,-2.258301,84.533691
1569,-0.736328,-1.060059,-0.249512,-30.517578,7.446289,68.725586
1570,-0.742188,-0.992676,-0.242676,-55.541992,16.723633,50.598145
1571,-0.655762,-0.843750,-0.314453,-95.031738,32.653809,30.029297
1572,-0.630371,-0.825195,-0.307129,-100.585938,34.973145,22.399902
1573,-0.625488,-0.827148,-0.347168,-105.529785,36.926270,9.582520
1574,-0.577148,-0.646973,-0.348145,-91.491699,45.837402,-19.287109
1575,-0.553223,-0.542480,-0.291992,-66.345215,38.879395,-29.479980
1576,-0.500000,-0.452148,-0.230469,-28.320312,28.503418,-36.499023
1577,-0.337402,-0.410645,-0.246582,76.599121,82.641602,-22.949219
1578,-0.356445,-0.495117,0.399414,172.790527,173.278809,16.723633
1579,-0.521484,-0.500977,1.375977,159.912109,172.424316,38.452148
1580,-0.166016,-0.512695,1.100098,30.090332,80.871582,39.794922
1581,-0.149414,-0.584473,0.764160,-3.234863,39.733887,32.226562
1582,-0.103027,-0.507812,0.356445,-21.118164,24.963379,29.296875
1583,-0.105957,-0.477539,0.192383,-7.324219,13.549805,28.442383
1584,-0.128418,-0.386719,0.082031,20.935059,2.502441,27.832031
1585,-0.170898,-0.352539,0.069824,16.845703,-5.371094,21.606445
1586,-0.268555,-0.313965,-0.084961,3.234863,-11.718750,9.094238
1587,-0.348633,-0.330566,-0.157715,0.976562,-6.469727,-1.708984
1588,-0.457031,-0.379395,-0.170410,6.347656,0.549316,-18.371582
1589,-0.708496,-0.516602,0.012695,30.090332,13.427734,-73.486328
1590,-0.808594,-0.581055,0.417480,36.560059,6.835938,-104.431152
1591,-0.941406,-0.668457,1.255859,37.170410,-33.691406,-129.394531
1592,-1.932129,-1.456543,2.524902,11.230469,-115.722656,-132.019043
1593,-0.851562,-1.662598,1.438965,-174.865723,89.294434,-48.278809
1594,-0.746094,-1.723145,-0.495117,-143.493652,93.017578,-18.493652
1595,-0.485352,-0.908203,0.439941,-13.122559,48.217773,25.695801
1596,-0.487305,-0.606445,0.114746,-30.761719,19.165039,29.296875
1597,-0.591309,-0.476562,-0.032227,-1.159668,-6.408691,23.437500
1598,-0.663574,-0.513672,-0.003418,44.799805,-58.593750,0.854492
1599,-0.825195,-0.763672,0.013672,53.771973,-78.857422,3.723145
1600,-1.145020,-1.265625,0.294922,40.710449,-70.251465,23.132324
1601,-1.100098,-1.571289,-0.444336,-128.540039,-43.212891,10.437012
1602,-0.989258,-1.445312,-0.449219,-119.262695,-43.273926,-1.464844
1603,-0.850586,-1.310547,-0.345703,-97.351074,-59.570312,-16.540527
1604,-0.632324,-1.084961,-0.334961,-14.404297,-87.585449,-50.231934
1605,-0.534180,-0.991699,-0.291504,23.803711,-86.120605,-63.720703
1606,-0.456543,-0.922363,-0.283203,49.377441,-70.312500,-72.814941
1607,-0.391113,-0.888184,-0.253906,69.641113,-45.227051,-79.101562
1608,-0.292969,-0.908691,-0.154785,85.937500,4.577637,-74.584961
1609,-0.236816,-0.928223,-0.096680,79.650879,25.512695,-64.697266
1610,-0.208008,-0.967285,-0.081543,63.415527,47.363281,-52.917480
1611,-0.111816,-0.818359,-0.008301,30.456543,96.191406,-39.123535
1612,-0.094727,-0.735352,0.115234,22.583008,105.407715,-25.695801
1613,-0.124512,-0.667480,0.244629,20.568848,98.815918,-14.709473
1614,-0.235840,-0.599609,0.445801,-4.394531,52.917480,-19.104004
1615,-0.249512,-0.533691,0.425293,-40.954590,30.639648,-29.235840
1616,-0.229004,-0.498047,0.424316,-69.824219,9.155273,-38.757324
1617,-0.135742,-0.315918,0.520508,-77.514648,-57.495117,-40.466309
1618,-0.187988,-0.274902,0.474609,-63.476562,-96.130371,-32.531738
1619,-0.245117,-0.297363,0.331543,-44.067383,-120.544434,-25.817871
1620,-0.313965,-0.350098,0.321777,-7.873535,-127.502441,-15.319824
1621,-0.325195,-0.375977,0.319336,1.220703,-122.924805,-9.643555
1622,-0.322266,-0.391602,0.288574,8.728027,-110.229492,0.305176
1623,-0.353516,-0.509277,0.328125,4.638672,-65.795898,29.846191
1624,-0.385254,-0.608887,0.296875,-3.417969,-36.254883,40.405273
1625,-0.429688,-0.720703,0.301758,-12.451172,-6.591797,44.677734
1626,-0.479004,-0.949219,0.403809,-37.658691,20.874023,36.254883
1627,-0.502930,-1.031738,0.449219,-50.720215,22.583008,29.785156
1628,-0.542480,-1.119141,0.529297,-66.528320,20.324707,21.972656
1629,-0.595215,-1.192383,0.646973,-88.073730,14.404297,13.305664
1630,-0.759277,-1.363281,0.946289,-114.013672,-28.137207,-12.695312
1631,-0.767578,-1.319336,0.979004,-103.942871,-65.246582,-34.301758
1632,-0.502930,-0.894043,0.347168,-26.245117,-80.993652,-8.361816
1633,-0.276367,-0.884766,0.222656,28.747559,-50.476074,25.512695
1634,-0.192383,-0.954102,0.236816,63.537598,-12.878418,51.513672
1635,-0.216309,-1.038574,0.244141,72.570801,20.446777,59.692383
1636,-0.292969,-1.102051,0.290039,76.477051,52.490234,61.950684
1637,-0.313477,-1.190918,0.370117,84.167480,49.194336,67.932129
1638,-0.312988,-1.418945,0.390137,104.248047,37.231445,66.101074
1639,-0.606934,-1.557129,0.759277,116.699219,-4.272461,46.508789
1640,-0.650879,-1.469238,0.402832,110.656738,-13.671875,52.124023
1641,-0.622559,-1.307129,0.286133,117.065430,-4.028320,68.420410
1642,-0.583008,-1.131348,0.214844,91.918945,5.126953,101.074219
1643,-0.578613,-1.076660,0.132812,69.763184,3.845215,103.271484
1644,-0.618652,-1.087891,0.064941,38.635254,-4.760742,103.820801
1645,-0.736816,-1.112305,-0.150391,-33.325195,0.122070,80.932617
1646,-0.760254,-1.073730,-0.185547,-73.730469,8.911133,60.302734
1647,-0.692383,-0.982422,-0.273438,-109.008789,22.766113,44.616699
1648,-0.676758,-0.883789,-0.325684,-147.888184,41.015625,31.921387
1649,-0.698730,-0.908691,-0.351562,-158.630371,49.072266,16.357422
1650,-0.671387,-0.890625,-0.444336,-157.165527,57.373047,-7.690430
1651,-0.576172,-0.667969,-0.229492,-120.666504,44.738770,-56.945801
1652,-0.482910,-0.541504,-0.196289,-92.407227,23.376465,-68.176270
1653,-0.390625,-0.434082,-0.249023,-44.799805,16.662598,-66.101074
1654,-0.207031,-0.329102,0.057617,171.997070,136.718750,27.221680
1655,-0.329590,-0.449219,0.990723,196.289062,175.415039,66.528320
1656,-0.282715,-0.631348,1.175781,195.983887,80.078125,55.969238
1657,-0.117188,-0.585938,0.882812,20.568848,36.315918,44.372559
1658,-0.112305,-0.578125,0.577148,-24.963379,20.507812,36.376953
1659,-0.124512,-0.507324,0.329590,-43.945312,9.826660,26.672363
1660,-0.147949,-0.416992,-0.012695,-51.879883,11.657715,18.737793
1661,-0.177734,-0.361328,-0.057617,-45.654297,10.498047,13.061523
1662,-0.337402,-0.300293,-0.146484,-34.851074,-3.356934,-4.760742
1663,-0.452637,-0.310059,-0.218750,-18.981934,-4.333496,-19.226074
1664,-0.579590,-0.327637,-0.264160,4.638672,2.441406,-37.353516
1665,-0.681641,-0.320312,-0.250977,32.043457,12.573242,-56.274414
1666,-0.809082,-0.303711,-0.024902,71.289062,20.812988,-79.284668
1667,-0.938477,-0.427246,0.240234,74.890137,13.122559,-86.975098
1668,-1.127930,-0.722656,0.812988,60.913086,-16.845703,-108.276367
1669,-1.607422,-1.711426,2.797852,86.547852,-145.019531,-132.446289
1670,-0.558594,-1.741211,1.371094,-147.033691,-5.004883,-55.603027
1671,-0.983398,-2.071289,-0.468262,-171.081543,80.810547,-23.498535
1672,-0.377441,-0.938477,0.141113,101.318359,72.143555,-26.428223
1673,-0.168457,-0.520996,0.399902,110.351562,39.062500,-15.502930
1674,-0.173828,-0.479004,0.334961,136.535645,-4.333496,-6.896973
1675,-0.487793,-0.850098,0.702148,135.620117,-82.458496,-33.264160
1676,-0.631348,-0.999512,0.772461,100.402832,-112.976074,-31.677246
1677,-0.939941,-1.432617,1.065918,63.964844,-104.309082,-0.427246
1678,-0.990723,-1.696289,-0.626465,-138.427734,-39.245605,37.902832
1679,-1.053711,-1.574707,-0.493164,-101.684570,-18.981934,36.193848
1680,-0.936523,-1.379395,-0.241699,-81.237793,-24.719238,21.484375
1681,-0.637207,-1.092773,-0.205566,-28.625488,-47.241211,-9.521484
1682,-0.534180,-0.990234,-0.204590,-5.859375,-42.175293,-25.817871
1683,-0.449707,-0.901855,-0.191406,13.183594,-29.418945,-42.419434
1684,-0.291504,-0.758301,-0.186523,18.005371,4.638672,-62.011719
1685,-0.201172,-0.702637,-0.251953,27.526855,33.935547,-43.395996
1686,-0.249023,-0.773926,-0.233887,40.832520,48.461914,-28.564453
1687,-0.287109,-0.804199,-0.113770,52.001953,58.227539,-20.935059
1688,-0.234375,-0.766602,0.054199,48.217773,63.842773,-14.526367
1689,-0.235352,-0.715332,0.149902,40.222168,60.241699,-12.939453
1690,-0.265137,-0.661133,0.236816,21.057129,51.696777,-16.540527
1691,-0.297363,-0.610352,0.251953,-8.300781,40.710449,-22.644043
1692,-0.371582,-0.524902,0.385254,-63.354492,2.502441,-34.179688
1693,-0.333984,-0.489746,0.395508,-75.317383,-28.503418,-39.367676
1694,-0.274414,-0.347656,0.409180,-50.720215,-91.430664,-39.550781
1695,-0.297363,-0.243652,0.413574,-35.217285,-113.647461,-27.770996
1696,-0.333496,-0.184082,0.400879,-29.235840,-122.192383,-9.094238
1697,-0.391602,-0.206543,0.311035,-16.784668,-111.145020,26.611328
1698,-0.433594,-0.259277,0.331055,-9.887695,-98.571777,37.109375
1699,-0.446777,-0.332031,0.336914,-11.779785,-84.838867,44.067383
1700,-0.432129,-0.415039,0.299805,-10.986328,-66.101074,48.400879
1701,-0.412109,-0.644043,0.333008,-14.099121,-22.888184,55.786133
1702,-0.442383,-0.795410,0.343750,-18.493652,-7.263184,55.175781
1703,-0.477539,-0.944824,0.375000,-22.521973,2.014160,49.560547
1704,-0.579102,-1.198730,0.492188,-42.358398,12.756348,22.216797
1705,-0.614746,-1.329102,0.592773,-64.025879,12.512207,8.483887
1706,-0.651367,-1.534668,0.714844,-85.021973,5.126953,-12.084961
1707,-0.638184,-1.356934,0.925781,-95.214844,-41.320801,-46.020508
1708,-0.551270,-1.156250,0.453613,-73.608398,-53.466797,-24.902344
1709,-0.420898,-1.181152,0.187988,-19.714355,-32.714844,2.624512
1710,-0.223145,-1.152832,0.332031,64.208984,17.822266,26.611328
1711,-0.275391,-1.133301,0.486816,63.598633,25.695801,35.888672
1712,-0.343262,-1.219238,0.508789,65.856934,17.517090,42.663574
1713,-0.528809,-1.281250,0.499023,104.553223,-8.117676,43.090820
1714,-0.700195,-1.266113,0.480957,101.623535,-17.150879,67.443848
1715,-0.836914,-1.328125,0.303223,100.524902,-14.404297,91.796875
1716,-0.876953,-1.276855,0.211426,93.811035,3.295898,107.910156
1717,-0.975098,-1.183105,-0.008789,56.701660,25.146484,108.520508
1718,-0.979492,-1.117188,-0.149414,39.855957,35.766602,92.285156
1719,-0.804199,-0.922852,-0.175781,-6.286621,54.931641,61.706543
1720,-0.701172,-0.799805,-0.167480,-32.104492,55.297852,57.983398
1721,-0.646484,-0.713379,-0.155273,-51.879883,46.875000,60.302734
1722,-0.615234,-0.665527,-0.175781,-69.274902,33.813477,61.401367
1723,-0.602539,-0.695312,-0.322266,-85.449219,17.883301,43.640137
1724,-0.602051,-0.728516,-0.396484,-85.266113,18.676758,21.606445
1725,-0.554199,-0.648438,-0.288574,-88.745117,18.432617,-25.146484
1726,-0.470215,-0.569824,-0.277832,-88.806152,7.324219,-34.790039
1727,-0.429688,-0.523926,-0.231934,-74.707031,-2.075195,-38.146973
1728,-0.406738,-0.494629,-0.144531,-52.917480,-3.784180,-41.992188
1729,-0.328125,-0.420410,0.061523,60.241699,67.687988,-8.850098
1730,-0.357910,-0.570801,0.989258,138.366699,137.268066,44.311523
1731,-0.310059,-0.562988,1.212402,72.509766,124.755859,62.805176
1732,-0.086426,-0.577637,0.650391,-1.892090,49.011230,31.616211
1733,-0.117188,-0.630371,0.463379,-27.709961,38.574219,19.104004
1734,-0.019043,-0.486816,0.207031,-27.282715,27.587891,10.559082
1735,-0.043945,-0.417480,0.087891,1.037598,8.850098,8.972168
1736,-0.061523,-0.395996,0.113281,-0.305176,-4.211426,2.563477
1737,-0.082031,-0.347656,0.060547,-6.896973,-16.357422,-5.065918
1738,-0.221680,-0.335449,-0.018066,6.774902,-28.320312,-20.812988
1739,-0.346191,-0.375000,-0.005371,22.644043,-33.447266,-30.578613
1740,-0.510254,-0.439941,0.043457,47.973633,-33.508301,-46.875000
1741,-0.873535,-0.736816,0.701660,79.162598,-35.888672,-100.585938
1742,-1.119629,-1.005859,1.444824,73.425293,-56.640625,-127.136230
1743,-1.700195,-1.625000,2.530273,58.593750,-78.247070,-136.047363
1744,-1.199707,-1.456543,1.828125,-25.817871,9.155273,-62.561035
1745,-0.999023,-1.533691,-0.347168,-87.402344,100.463867,18.127441
1746,-0.838867,-1.112793,-0.004883,-0.915527,79.833984,14.465332
1747,-0.694336,-0.697754,0.178223,0.122070,45.776367,0.427246
1748,-0.570312,-0.244141,-0.091309,58.776855,-17.639160,-20.629883
1749,-0.548828,-0.249023,-0.076172,103.881836,-43.334961,-34.362793
1750,-0.573242,-0.288086,-0.021484,131.774902,-62.622070,-47.607422
1751,-0.876953,-0.920410,0.401367,99.853516,-111.145020,-55.908203
1752,-1.007324,-1.334473,0.596191,35.400391,-128.479004,-45.104980
1753,-1.050293,-1.574707,0.403809,-69.396973,-118.957520,-13.977051
1754,-0.996094,-1.619629,-0.296387,-149.597168,-79.284668,16.357422
1755,-0.957031,-1.424316,-0.311523,-97.656250,-54.382324,8.605957
1756,-0.823242,-1.307129,-0.214844,-49.865723,-72.204590,-9.704590
1757,-0.539551,-1.094238,-0.161621,43.151855,-78.186035,-40.649414
1758,-0.427734,-1.004883,-0.142090,71.228027,-60.485840,-51.452637
1759,-0.356445,-0.942871,-0.085449,80.932617,-34.912109,-58.105469
1760,-0.261230,-0.834961,-0.021484,56.701660,9.033203,-49.377441
1761,-0.235352,-0.828125,-0.138672,38.635254,33.691406,-31.860352
1762,-0.252930,-0.858887,-0.206055,36.682129,63.903809,-18.798828
1763,-0.224609,-0.796875,0.030762,27.221680,104.980469,-14.465332
1764,-0.218262,-0.773438,0.147461,17.944336,105.957031,-20.080566
1765,-0.230469,-0.645508,0.293945,-13.732910,76.904297,-40.771484
1766,-0.256348,-0.582031,0.313965,-32.287598,56.396484,-48.400879
1767,-0.268555,-0.510742,0.327148,-47.546387,34.973145,-52.368164
1768,-0.220703,-0.426270,0.374023,-60.180664,9.765625,-52.490234
1769,-0.083496,-0.317383,0.314941,-51.025391,-40.161133,-39.733887
1770,-0.089355,-0.288086,0.334473,-33.630371,-64.575195,-31.860352
1771,-0.155273,-0.291992,0.306152,-7.934570,-98.571777,-19.531250
1772,-0.208008,-0.278320,0.239746,-2.563477,-99.487305,-9.521484
1773,-0.247070,-0.275391,0.201660,1.464844,-91.064453,4.943848
1774,-0.289551,-0.301758,0.229980,2.868652,-78.430176,21.606445
1775,-0.393066,-0.485352,0.288574,-6.408691,-54.687500,43.212891
1776,-0.440430,-0.643555,0.311523,-13.305664,-40.466309,45.593262
1777,-0.479004,-0.830078,0.382324,-22.399902,-27.526855,39.550781
1778,-0.494629,-0.986328,0.438965,-36.437988,-19.470215,29.418945
1779,-0.566406,-1.211914,0.550781,-71.899414,-19.348145,16.906738
1780,-0.669922,-1.340332,0.633301,-92.346191,-24.291992,10.681152
1781,-0.925293,-1.432617,1.002930,-130.432129,-55.664062,-23.132324
1782,-0.925781,-1.268555,0.871582,-126.953125,-81.054688,-38.085938
1783,-0.737793,-1.009766,0.586426,-91.430664,-89.355469,-32.653809
1784,-0.244629,-0.876465,0.227539,12.878418,-35.583496,25.146484
1785,-0.143555,-1.000977,0.276367,44.616699,-1.220703,43.334961
1786,-0.108398,-1.081055,0.270508,58.471680,26.428223,43.395996
1787,-0.166992,-1.170410,0.487305,77.026367,36.499023,46.997070
1788,-0.201660,-1.378906,0.561523,85.998535,22.521973,49.438477
1789,-0.255859,-1.546387,0.637207,104.187012,4.028320,42.968750
1790,-0.412109,-1.450684,0.727539,115.966797,-22.277832,44.677734
1791,-0.537109,-1.283203,0.336426,125.793457,-20.202637,86.669922
1792,-0.552246,-1.273438,0.337402,124.816895,-8.422852,108.581543
1793,-0.562988,-1.211426,0.339844,105.224609,-3.051758,120.727539
1794,-0.676270,-1.206543,0.082031,55.847168,-11.352539,127.807617
1795,-0.708984,-1.194824,-0.066895,31.860352,-7.995605,122.009277
1796,-0.806152,-1.123047,-0.096191,-42.907715,4.638672,94.604492
1797,-0.801270,-1.015137,-0.143066,-89.599609,8.666992,76.049805
1798,-0.719238,-0.891113,-0.272949,-122.741699,14.587402,60.119629
1799,-0.701172,-0.812012,-0.290039,-133.972168,20.141602,47.851562
1800,-0.679688,-0.778809,-0.308105,-144.531250,26.977539,13.854980
1801,-0.686523,-0.787598,-0.365723,-139.770508,32.958984,-11.962891
1802,-0.539551,-0.556152,-0.233398,-99.182129,25.085449,-61.218262
1803,-0.435547,-0.460449,-0.212891,-65.429688,13.916016,-68.542480
1804,-0.347168,-0.379395,-0.215820,-22.277832,17.700195,-62.561035
1805,-0.238281,-0.305664,-0.370117,44.921875,66.162109,-27.648926
1806,-0.453613,-0.378418,0.920898,152.893066,185.791016,62.744141
1807,-0.285645,-0.409668,0.932617,178.894043,97.839355,65.979004
1808,-0.088379,-0.337402,1.000977,105.407715,91.796875,74.523926
1809,-0.137207,-0.584961,0.714355,12.634277,23.193359,49.316406
1810,-0.092773,-0.509277,0.444336,-18.371582,10.192871,35.705566
1811,-0.090820,-0.506348,0.269531,-37.902832,10.131836,24.780273
1812,-0.096191,-0.395020,0.048828,-47.851562,10.192871,10.620117
1813,-0.153809,-0.353516,-0.009766,-45.959473,6.896973,5.615234
1814,-0.241699,-0.326172,-0.069336,-38.879395,-0.793457,-0.915527
1815,-0.497070,-0.401367,-0.250977,1.586914,-6.896973,-28.259277
1816,-0.651855,-0.456055,-0.244629,30.883789,2.136230,-51.208496
1817,-0.837402,-0.564941,-0.027832,49.682617,9.277344,-79.162598
1818,-1.106934,-0.764160,0.425293,-16.113281,-10.131836,-147.827148
1819,-1.076660,-0.824707,0.655273,-25.207520,-26.245117,-165.649414
1820,-1.232910,-1.090332,2.034180,37.719727,-81.054688,-159.973145
1821,-0.986816,-1.715332,1.352539,-145.324707,33.142090,-10.314941
1822,-0.890625,-1.735840,-0.626465,-144.592285,78.735352,-7.934570
1823,-0.625488,-1.186523,-0.772949,29.418945,84.350586,-5.493164
1824,-0.420410,-0.760742,0.109863,90.087891,89.294434,0.549316
1825,-0.386719,-0.409668,0.125977,118.347168,21.911621,18.249512
1826,-0.484863,-0.579102,0.269043,150.390625,-20.874023,0.915527
1827,-0.870117,-1.121582,0.963867,98.937988,-136.474609,-48.339844
1828,-1.041992,-1.417480,0.882324,15.686035,-148.010254,-32.958984
1829,-1.000488,-1.684570,0.249023,-103.454590,-110.107422,-15.380859
1830,-0.967285,-1.688477,-0.341797,-128.784180,-64.514160,-2.685547
1831,-0.840820,-1.401855,-0.162598,-70.373535,-62.194824,-8.728027
1832,-0.635254,-1.261230,-0.212402,-29.296875,-72.692871,-16.174316
1833,-0.447754,-1.052246,-0.115723,30.944824,-57.617188,-25.085449
1834,-0.378418,-0.968262,-0.117676,38.879395,-31.005859,-37.780762
1835,-0.244629,-0.746582,-0.161133,38.879395,24.963379,-45.898438
1836,-0.223145,-0.705566,-0.142578,41.625977,44.006348,-39.062500
1837,-0.244141,-0.729492,-0.095215,40.161133,57.128906,-33.203125
1838,-0.247070,-0.742188,-0.091309,33.142090,67.871094,-31.982422
1839,-0.157227,-0.662598,0.019043,28.625488,78.491211,-23.254395
1840,-0.151855,-0.647949,0.130859,25.512695,73.669434,-17.089844
1841,-0.147949,-0.607910,0.204102,14.587402,64.514160,-15.563965
1842,-0.128418,-0.481445,0.218262,-10.009766,36.010742,-17.089844
