order,ax,ay,az,gx,gy,gz
0,-0.069824,-0.375000,0.932129,43.029785,-7.690430,-26.306152
1,-0.061035,-0.314941,0.902344,56.945801,-7.629395,-25.268555
2,-0.080566,-0.174316,1.046387,60.119629,-8.789062,-8.972168
3,-0.125977,-0.214355,1.091797,43.334961,-9.704590,2.380371
4,-0.234375,-0.444336,1.128418,-7.507324,3.967285,9.094238
5,-0.222168,-0.557617,1.095703,-19.287109,13.671875,1.647949
6,-0.238770,-0.508789,1.219727,-19.653320,23.010254,-29.235840
7,-0.178223,-0.416504,1.211426,-4.333496,7.934570,-34.484863
8,-0.185547,-0.359863,1.191406,14.404297,-11.352539,-34.301758
9,-0.197266,-0.255371,1.075195,39.367676,-48.339844,-38.879395
10,-0.170410,-0.212891,0.922852,56.335449,-61.950684,-40.161133
11,-0.128418,-0.179199,0.830078,78.369141,-70.373535,-38.879395
12,-0.088379,-0.153320,0.799805,92.163086,-73.913574,-35.644531
13,-0.067871,-0.165527,0.882324,63.049316,-58.532715,-24.536133
14,-0.092285,-0.209961,0.886230,33.203125,-49.804688,-19.897461
15,-0.111328,-0.241699,0.854980,1.708984,-40.222168,-17.578125
16,-0.085938,-0.277344,0.789062,-26.611328,-27.587891,-18.005371
17,0.012207,-0.344238,0.678711,-52.001953,4.943848,-21.545410
18,0.069336,-0.358398,0.631836,-41.259766,19.348145,-23.681641
19,0.036621,-0.373047,0.708984,-21.545410,28.015137,-27.954102
20,0.023926,-0.262695,0.795410,-4.211426,17.944336,-44.372559
21,0.024902,-0.215820,0.797852,5.737305,13.549805,-43.334961
22,-0.013184,-0.217285,0.843262,12.145996,5.493164,-40.710449
23,-0.037598,-0.229492,0.840820,13.244629,-6.652832,-38.696289
24,0.010742,-0.186523,0.814941,6.896973,-29.541016,-32.226562
25,0.043457,-0.166504,0.798828,-3.967285,-34.851074,-26.367188
26,0.060059,-0.133789,0.751465,-11.657715,-38.391113,-18.798828
27,0.066895,-0.165527,0.715820,-16.967773,-40.893555,-1.342773
28,0.089355,-0.230957,0.675781,-17.700195,-33.752441,4.699707
29,0.141113,-0.265625,0.691406,-15.502930,-25.939941,10.131836
30,0.160156,-0.303223,0.747559,-22.277832,-20.019531,13.732910
31,0.113281,-0.309570,0.770020,-46.020508,5.371094,19.042969
32,0.071777,-0.400391,0.771484,-50.354004,21.240234,20.324707
33,0.038086,-0.462402,0.833008,-45.776367,33.081055,18.554688
34,-0.039062,-0.583984,1.041504,-45.715332,27.893066,17.150879
35,0.108398,-0.583496,1.025391,-36.621094,-12.634277,7.019043
36,0.031738,-0.631836,1.047852,-26.550293,-27.282715,7.385254
37,0.019043,-0.605957,1.046875,-24.536133,-30.273438,0.549316
38,0.017090,-0.506836,0.970703,-14.404297,-15.197754,-24.230957
39,0.021973,-0.444336,1.049805,2.136230,-4.455566,-31.616211
40,-0.015625,-0.420898,1.260254,29.174805,-12.817383,-34.423828
41,-0.016602,-0.444824,1.562500,73.974609,-93.750000,-36.254883
42,0.053223,-0.435547,1.474121,71.655273,-131.652832,-36.987305
43,0.193848,-0.424316,1.155273,76.049805,-145.690918,-35.522461
44,0.288086,-0.468750,0.929688,97.167969,-138.183594,-33.447266
45,0.297852,-0.490723,1.041016,140.808105,-94.055176,-58.654785
46,0.234375,-0.413086,1.325195,134.399414,-89.843750,-94.421387
47,0.251465,-0.269043,1.532715,94.604492,-94.604492,-136.352539
48,0.392578,-0.011230,1.277344,0.976562,-89.965820,-180.175781
49,0.437500,0.046875,1.054688,-18.005371,-79.223633,-184.204102
50,0.578125,0.126953,0.810547,-25.207520,-59.387207,-175.537109
51,0.700195,0.162598,0.495117,-0.915527,17.211914,-106.201172
52,0.523438,0.092773,0.616699,16.113281,46.081543,-80.017090
53,0.364746,0.034668,0.750488,19.104004,62.438965,-72.570801
54,0.209473,-0.074219,0.833984,31.494141,63.232422,-83.618164
55,0.162598,-0.172363,0.890137,60.852051,47.668457,-88.745117
56,0.047363,-0.194336,0.944336,115.173340,15.869141,-95.642090
57,-0.276855,-0.034668,1.113281,190.917969,-40.039062,-127.685547
58,0.083984,0.334961,1.335449,171.264648,-45.288086,-135.375977
59,1.041016,1.120605,1.369629,101.867676,-24.963379,-76.843262
60,0.711426,0.768066,0.993652,67.993164,-15.258789,2.929688
61,0.184570,0.188477,0.857422,85.144043,-39.855957,18.310547
62,0.362793,0.268066,0.863770,69.763184,-29.785156,7.934570
63,0.393555,0.278809,0.789551,38.940430,-8.483887,9.765625
64,0.355957,0.229980,0.693359,16.357422,7.324219,10.192871
65,0.266113,0.183105,0.769531,-43.518066,27.038574,-0.610352
66,0.243652,0.181152,0.838379,-82.336426,22.705078,-5.798340
67,0.247559,0.146973,0.810547,-114.990234,15.625000,-9.277344
68,0.189453,-0.125000,0.482910,-134.948730,49.926758,-34.790039
69,0.160645,-0.159668,0.418945,-105.102539,84.594727,-52.795410
70,0.166016,-0.114258,0.491211,-84.045410,117.858887,-64.941406
71,0.168945,0.054688,0.762207,-80.200195,148.498535,-70.312500
72,0.061035,0.071777,1.246582,-150.573730,174.072266,-74.218750
73,0.095215,-0.049316,1.307617,-152.160645,145.385742,-76.965332
74,0.096191,-0.154785,1.273438,-148.559570,98.876953,-75.988770
75,0.112793,-0.247559,1.109375,-121.154785,42.114258,-74.829102
76,0.149902,-0.207520,1.021484,-34.851074,-65.490723,-62.744141
77,0.205078,-0.145996,0.838379,-3.234863,-98.815918,-52.490234
78,0.257812,-0.127930,0.862305,22.705078,-117.248535,-41.503906
79,0.298340,-0.159668,0.972656,-21.972656,-96.679688,-48.156738
80,0.273438,-0.332031,1.145996,-84.533691,-47.180176,-69.335938
81,0.287598,-0.322266,1.209961,-146.728516,4.516602,-96.008301
82,0.288574,-0.319824,0.979004,-172.912598,29.174805,-119.384766
83,0.574219,-0.055176,0.822754,-124.511719,25.146484,-108.520508
84,0.661621,0.045410,0.905762,-93.505859,37.292480,-78.857422
85,0.236816,-0.363770,1.355469,-137.512207,65.856934,-80.871582
86,0.117188,-0.382812,1.354492,-175.109863,67.077637,-99.182129
87,0.177246,-0.333496,1.221191,-199.645996,64.880371,-108.398438
88,0.246094,-0.313965,1.104492,-199.096680,56.945801,-103.820801
89,0.205566,-0.373047,1.145020,-161.560059,42.724609,-91.369629
90,0.165039,-0.407227,1.206543,-135.986328,42.602539,-85.876465
91,0.062012,-0.532227,1.287109,-117.614746,45.288086,-76.721191
92,0.036621,-0.719238,1.288574,-102.416992,36.010742,-65.246582
93,-0.083008,-0.901367,1.276855,-90.698242,22.033691,-75.622559
94,-0.040039,-0.746582,1.116699,-74.645996,1.892090,-95.642090
95,0.160645,-0.186523,0.871582,-30.334473,-28.564453,-59.997559
96,0.104004,-0.122070,0.817383,-11.962891,-39.550781,-25.512695
97,0.052246,-0.209961,0.807617,-8.789062,-52.185059,-5.249023
98,0.193848,-0.278809,0.544922,-38.513184,-54.016113,6.225586
99,0.199707,-0.355469,0.478027,-46.569824,-43.457031,6.408691
100,0.158691,-0.482910,0.498535,-56.030273,-31.616211,-6.225586
101,0.229004,-0.526855,0.520996,-99.060059,5.249023,-36.071777
102,0.311523,-0.608398,0.416016,-106.018066,25.085449,-46.508789
103,0.269043,-0.601074,0.378906,-83.129883,35.888672,-48.095703
104,0.167480,-0.656250,0.390137,-41.503906,36.010742,-50.537109
105,0.158203,-0.589844,0.129883,-27.160645,79.589844,-88.562012
106,0.181641,-0.433105,0.210938,7.324219,109.497070,-94.238281
107,0.143066,-0.208008,0.492676,59.692383,116.455078,-76.477051
108,0.193359,-0.077148,0.721191,52.185059,116.271973,-63.720703
109,0.192383,-0.065430,0.835449,18.676758,117.065430,-49.499512
110,0.162109,-0.140137,0.806641,-17.517090,115.905762,-38.269043
111,0.183594,-0.171875,0.583008,-45.654297,104.431152,-8.178711
112,0.187988,-0.190918,0.531738,-44.921875,94.665527,16.723633
113,0.197266,-0.223145,0.552246,-47.302246,84.228516,44.006348
114,0.392090,-0.253418,1.507812,29.968262,-63.781738,79.101562
115,0.441406,-0.415527,1.019531,10.437012,-102.355957,90.270996
116,0.321289,-0.831543,0.727539,12.512207,-95.275879,51.330566
117,0.387695,-0.651367,0.488770,10.620117,-40.344238,15.502930
118,0.422363,-0.437988,0.620605,18.798828,12.756348,28.320312
119,0.434082,-0.360352,0.841309,27.770996,13.610840,61.340332
120,0.397949,-0.325195,1.007324,11.840820,3.295898,101.745605
121,0.244629,-0.512207,0.964355,-38.208008,-25.146484,135.559082
122,0.266602,-0.521484,0.757324,-56.884766,-11.108398,128.784180
123,0.256836,-0.604980,0.670898,-70.495605,50.476074,93.322754
124,0.206543,-0.767578,1.013184,-86.364746,63.171387,61.218262
125,0.113770,-0.874512,1.250488,-109.008789,59.692383,21.301270
126,-0.229980,-1.109375,1.285156,-117.980957,39.855957,-28.808594
127,-0.773926,-1.437988,0.814941,-67.016602,8.483887,-131.164551
128,-0.660156,-1.249512,0.604492,-14.587402,-11.352539,-177.185059
129,-0.305176,-0.934570,0.429199,52.673340,-20.751953,-201.416016
130,0.958984,-0.009277,1.778320,148.010254,-20.324707,-151.489258
131,1.548828,0.522461,2.405762,4.272461,-21.362305,-49.865723
132,0.930664,-0.243164,1.140137,-86.486816,7.690430,28.076172
133,-0.161621,-0.816406,1.203613,-38.330078,-2.746582,54.504395
134,-0.100586,-0.765137,1.113281,-26.306152,-35.766602,69.885254
135,-0.007324,-0.609375,1.000488,-13.916016,-43.823242,80.139160
136,-0.039062,-0.685059,0.908203,0.549316,-36.682129,77.758789
137,-0.057617,-0.468262,0.978027,22.888184,-33.569336,67.749023
138,-0.058594,-0.354980,0.911133,15.808105,-45.227051,85.205078
139,-0.127441,-0.315430,0.825684,9.155273,-56.213379,104.370117
140,-0.289062,-0.438477,0.791504,-24.841309,-67.932129,124.633789
141,-0.305176,-0.534180,0.851562,-43.579102,-79.284668,122.802734
142,-0.228027,-0.616699,0.828613,-65.490723,-91.674805,113.952637
143,-0.214844,-0.623535,0.591797,-95.581055,-82.824707,81.848145
144,-0.208496,-0.548340,0.746094,-95.214844,-98.632812,85.510254
145,-0.453125,-0.603027,0.671387,-83.923340,-121.887207,88.073730
146,-0.602051,-0.333984,0.736328,-53.039551,-136.230469,91.003418
147,-0.434570,-0.311035,1.009766,-65.246582,-175.170898,112.121582
148,-0.274414,-0.165527,0.569336,-67.321777,-204.589844,151.123047
149,-0.138184,-0.255371,0.377441,-58.837891,-209.899902,183.959961
150,-0.051270,-0.398926,0.186035,-24.902344,-158.569336,208.984375
151,-0.173828,-0.407227,0.289551,-27.709961,-127.807617,212.402344
152,-0.312012,-0.299316,0.340820,-35.339355,-109.191895,228.088379
153,-0.593750,-0.321777,0.476074,-36.437988,-125.305176,280.700684
154,-0.584961,-0.423828,0.550781,-42.663574,-139.160156,296.020508
155,-0.572754,-0.573730,0.523438,-67.382812,-139.587402,301.025391
156,-0.587891,-0.683105,0.358887,-115.783691,-122.985840,297.363281
157,-0.617676,-0.693359,0.301270,-122.802734,-111.511230,304.443359
158,-0.737793,-0.505371,0.278320,-93.811035,-76.538086,342.529297
159,-0.819336,-0.520508,0.378418,-60.913086,-74.340820,373.413086
160,-0.905762,-0.644043,0.600098,-43.457031,-74.035645,393.310547
161,-0.856445,-1.012695,0.893555,-47.363281,-82.458496,390.625000
162,-0.613281,-1.103027,0.871582,-41.320801,-88.439941,368.591309
163,-0.140137,-0.845703,0.722168,-20.446777,-81.420898,354.064941
164,-0.400879,-1.105469,0.848145,-6.896973,-26.184082,316.345215
165,-0.606934,-1.696289,1.180664,-3.356934,-31.372070,292.663574
166,-0.505859,-2.040527,1.297363,-5.371094,-46.752930,245.483398
167,-0.499512,-2.318359,1.176758,15.869141,-55.969238,199.829102
168,-0.167480,-2.363281,0.895996,129.455566,-67.504883,124.572754
169,-0.193848,-2.323242,0.746582,159.240723,-65.490723,75.683594
170,-0.088867,-2.220703,0.522461,158.691406,-52.062988,16.174316
171,0.107910,-2.052246,0.156250,115.844727,0.305176,-96.435547
172,0.008789,-1.993164,0.003906,78.186035,45.104980,-157.470703
173,-0.040527,-1.554688,-0.111816,60.668945,92.590332,-197.448730
174,-0.253906,-1.324219,0.128906,63.842773,116.699219,-212.463379
175,-0.752441,-0.232910,0.514160,35.705566,122.863770,-163.330078
176,-1.064941,0.038574,0.636230,-10.437012,109.985352,-96.679688
177,-1.173828,-0.184570,0.249512,-128.356934,79.223633,-40.649414
178,-0.937012,-0.070312,-0.047852,-165.405273,84.106445,-20.812988
179,-0.771484,-0.354980,-0.118164,-175.842285,92.102051,-13.183594
180,-0.599609,-0.615234,-0.126465,-185.180664,94.970703,-28.625488
181,-0.467773,-0.806641,-0.249023,-177.185059,120.117188,-103.088379
182,-0.384766,-0.690430,-0.113281,-155.639648,142.578125,-137.023926
183,-0.284668,-0.608887,-0.150879,-125.061035,165.710449,-150.878906
184,-0.375488,-0.642578,-0.284668,-9.948730,211.608887,-133.666992
185,-0.048828,-0.671875,-0.083008,43.579102,248.779297,-121.215820
186,0.010254,-0.732422,0.388672,39.184570,263.732910,-83.435059
187,-1.292480,-1.078613,0.623535,66.101074,224.243164,-79.589844
188,-1.117676,-1.004883,0.498535,76.721191,190.002441,-135.559082
189,-0.607910,-0.785645,0.785645,106.079102,150.939941,-178.222656
190,-0.470703,-0.449707,0.176758,106.262207,121.032715,-191.894531
191,-0.270996,-0.304199,0.009766,26.733398,176.025391,-136.779785
192,-0.206055,-0.490723,-0.102539,-1.159668,172.363281,-125.488281
193,-0.234863,-0.679199,-0.198730,-33.386230,158.325195,-148.071289
194,0.110352,-0.797852,-0.330078,-26.367188,212.402344,-171.325684
195,-0.157715,-0.626953,-0.076172,-54.077148,258.056641,-169.738770
196,-0.485840,-0.732422,-0.079102,-52.795410,74.340820,-50.537109
197,-0.317383,-0.761719,-0.025879,-18.615723,-2.258301,-9.155273
198,-0.297363,-0.831055,0.233887,29.357910,-45.043945,20.507812
199,-0.392090,-1.125488,0.003906,33.874512,-50.964355,18.615723
200,-0.291504,-1.333496,-0.791992,-21.301270,95.581055,-106.933594
201,-0.042480,-0.804199,-0.514160,10.070801,229.431152,-167.602539
202,0.055664,-0.778809,0.735840,-36.254883,226.501465,-192.260742
203,-0.326660,-0.692383,0.513672,-88.134766,12.939453,-5.798340
204,-0.206543,-0.909668,0.694824,-81.726074,-39.306641,40.588379
205,-0.065918,-1.158203,0.309082,-88.928223,-71.472168,63.903809
206,-0.113281,-1.218750,-0.061523,-103.698730,-58.959961,76.660156
207,-0.087891,-1.123535,-0.351074,-36.621094,22.094727,107.727051
208,-0.276367,-1.114746,-0.086914,-9.338379,40.344238,112.731934
209,-0.359863,-1.048340,-0.222656,16.357422,47.241211,119.445801
210,-0.695312,-1.206543,0.230957,29.357910,72.082520,79.223633
211,-0.771973,-1.470703,0.583984,-29.113770,29.663086,43.273926
212,-0.814941,-1.584473,0.455078,-127.624512,-8.544922,-2.258301
213,-0.652832,-1.356445,-0.135254,-177.978516,-20.690918,-78.063965
214,-0.720215,-1.374512,-0.215332,-171.875000,-9.826660,-112.243652
215,-0.638672,-1.094238,-0.104004,-149.291992,-12.634277,-129.577637
216,-0.691895,-0.812500,0.505371,-87.646484,-91.430664,-44.433594
217,-0.714844,-1.030273,0.235352,-51.391602,-129.028320,-5.126953
218,-0.614746,-0.997070,0.355957,-9.338379,-140.502930,15.930176
219,-0.503418,-0.809570,0.224121,-11.535645,-149.108887,21.484375
220,-0.463379,-0.761719,0.109375,7.934570,-155.456543,20.751953
221,-0.372070,-0.738281,-0.069336,32.348633,-144.226074,7.446289
222,-0.460938,-0.719727,-0.278809,41.259766,-113.647461,-7.507324
223,-0.773926,-0.616699,0.140625,14.892578,-77.087402,-5.859375
224,-0.885254,-0.831055,0.341797,-34.179688,-77.636719,-14.770508
225,-0.929199,-1.038574,0.437012,-87.097168,-95.520020,-22.644043
226,-0.701660,-1.078125,0.212402,-125.915527,-135.742188,-29.968262
227,-0.521484,-0.997559,-0.014648,-129.516602,-144.775391,-27.099609
228,-0.459961,-0.993164,-0.227539,-120.483398,-133.605957,-28.015137
229,-0.351074,-0.780762,-0.337891,-77.697754,-94.848633,-28.442383
230,-0.357422,-0.760742,-0.251953,-59.204102,-79.956055,-26.428223
231,-0.370117,-0.773926,-0.116211,-56.701660,-77.941895,-32.836914
232,-0.416992,-0.693359,-0.164062,-103.881836,-101.440430,-65.124512
233,-0.452148,-0.546387,-0.230957,-115.661621,-106.323242,-74.279785
234,-0.410645,-0.415527,-0.319336,-128.356934,-96.984863,-51.513672
235,-0.285156,-0.441406,-0.482422,-121.765137,-79.223633,-31.921387
236,-0.334473,-0.550781,-0.403809,-125.549316,-67.443848,-16.174316
237,-0.375000,-0.662598,-0.386230,-130.676270,-65.490723,-17.150879
238,-0.320801,-0.473633,-0.593750,-129.760742,-65.429688,-9.887695
239,-0.333008,-0.506348,-0.832520,-121.032715,-53.527832,11.535645
240,-0.366699,-0.714844,-1.012695,-107.238770,-29.052734,26.428223
241,-0.447754,-0.865234,-0.895996,-75.683594,-3.540039,40.344238
242,-0.487793,-0.964355,-0.911133,-84.228516,6.225586,42.541504
243,-0.456055,-0.971191,-1.056641,-88.989258,23.559570,30.212402
244,-0.426758,-0.935059,-0.890137,-50.903320,65.429688,-6.835938
245,-0.497070,-0.716309,-0.686035,-2.502441,63.354492,-24.353027
246,-0.373535,-0.312012,-0.510254,129.760742,64.392090,-43.395996
247,0.491699,0.203125,1.384277,108.886719,-28.442383,29.479980
248,-1.101562,-2.230469,-1.749023,-110.778809,15.625000,46.020508
249,-0.563477,-0.870605,-0.693848,-200.500488,75.073242,2.868652
250,-0.562500,-1.038574,-0.833008,-212.829590,44.067383,31.677246
251,-0.517578,-0.857422,-0.523438,-246.337891,34.118652,30.761719
252,-0.760254,-1.066895,-0.490234,-249.938965,-6.530762,50.598145
253,-0.941406,-1.347168,-0.627441,-255.676270,-18.737793,30.578613
254,-0.899902,-1.308594,-0.657715,-247.802734,-23.010254,-4.089355
255,-0.703613,-1.148438,-0.687988,-219.238281,-26.916504,-30.639648
256,-0.526855,-1.059082,-0.868652,-126.831055,-11.596680,-35.217285
257,-0.398926,-1.009766,-0.895508,-66.406250,22.155762,-22.766113
258,-0.292969,-0.979004,-0.693848,-4.272461,61.462402,0.915527
259,-0.299805,-0.708984,-0.396973,68.969727,96.130371,42.236328
260,-0.455078,-0.674805,-0.235352,87.768555,100.952148,46.508789
261,-0.565918,-0.653320,-0.090820,88.378906,94.299316,35.644531
262,-0.477539,-0.501953,0.093262,26.062012,58.837891,16.113281
263,-0.468750,-0.445801,-0.013184,-21.728516,39.428711,11.108398
264,-0.455566,-0.393066,-0.187500,-69.396973,34.729004,5.432129
265,-0.253906,-0.234863,-0.314453,-131.958008,48.645020,-4.943848
266,-0.139648,-0.226562,-0.311523,-148.864746,41.137695,3.479004
267,-0.118164,-0.236816,-0.360352,-168.029785,39.733887,17.089844
268,-0.085449,-0.248535,-0.289551,-198.242188,30.334473,49.682617
269,-0.068359,-0.210938,-0.230957,-224.243164,20.019531,61.279297
270,-0.022461,-0.166016,-0.172363,-285.888672,-11.474609,66.284180
271,0.029785,-0.120117,-0.233887,-339.904785,-31.860352,58.776855
272,0.096680,-0.316406,-2.152832,-308.837891,-18.310547,51.269531
273,0.029785,-0.107422,-1.193848,54.504395,9.216309,40.832520
274,-0.016113,-0.069336,-0.694824,146.850586,-11.779785,27.343750
275,-0.095703,-0.159180,-0.366699,114.990234,-49.011230,13.366699
276,-0.353027,-0.257324,-0.665527,1.831055,-80.383301,-44.616699
277,-0.456055,-0.231934,-0.798828,-28.625488,-83.557129,-71.472168
278,-0.559082,-0.252930,-0.974121,-40.100098,-72.753906,-101.440430
279,-0.497070,-0.200195,-1.081543,-25.817871,-50.170898,-136.596680
280,-0.427246,-0.228027,-1.276367,-4.211426,-40.527344,-130.798340
281,-0.374512,-0.247559,-1.326660,27.587891,-28.991699,-115.051270
282,-0.215332,-0.229004,-1.403809,49.804688,-19.531250,-90.026855
283,0.255859,-0.231445,-2.101562,116.333008,-13.549805,1.708984
284,-0.008789,-0.272949,-1.861816,209.411621,-44.921875,48.095703
285,-0.587402,-0.393555,-0.822266,244.934082,-113.586426,48.828125
286,-0.848633,-0.317383,-0.566895,107.543945,-165.039062,-39.184570
287,-0.820312,-0.278809,-0.658203,37.902832,-136.474609,-83.374023
288,-0.751953,-0.219238,-0.809082,-25.207520,-67.810059,-102.294922
289,-0.813477,-0.420410,-0.817383,-83.923340,16.052246,-110.656738
290,-0.686035,-0.521973,-1.452637,-71.655273,71.166992,-110.473633
291,-0.616211,-0.713867,-1.750977,98.571777,-2.746582,-23.864746
292,-0.839844,-0.864258,-1.104004,209.167480,-13.549805,13.305664
293,-0.978516,-0.944824,-0.305176,187.194824,10.314941,-28.991699
294,-0.841797,-0.846680,-0.193848,142.883301,10.070801,-81.848145
295,-0.754395,-0.791504,-0.126465,88.928223,20.690918,-121.520996
296,-0.640625,-0.819336,-0.022949,-47.241211,50.537109,-168.884277
297,-0.525391,-0.851074,0.091309,-120.788574,51.452637,-171.325684
298,-0.515137,-1.102051,-0.119141,-159.118652,22.399902,-161.560059
299,-0.425781,-0.985352,-0.181152,-112.060547,-95.764160,-117.431641
300,-0.462891,-1.184570,-0.974609,-75.317383,-131.225586,-107.971191
301,-0.397949,-1.062500,-0.896973,-49.804688,-113.891602,-92.834473
302,-0.389160,-1.093750,-0.800781,-8.666992,-109.008789,-77.087402
303,-0.160156,-0.857422,-0.411621,34.179688,-107.788086,-76.477051
304,-0.099121,-0.727051,-0.409668,38.208008,-102.172852,-63.720703
305,-0.081543,-0.647949,-0.450684,51.086426,-87.585449,-51.025391
306,0.007324,-0.400879,-0.649414,108.886719,-8.666992,-13.244629
307,0.064453,-0.311035,-0.541504,138.916016,31.738281,14.404297
308,-0.040527,-0.168457,-0.473145,165.832520,97.473145,79.406738
309,-0.178711,-0.215820,-0.420410,153.808594,107.666016,89.111328
310,-0.260254,-0.190918,-0.510254,107.421875,78.430176,52.124023
311,-0.167969,-0.097656,-0.625977,69.824219,42.541504,17.639160
312,-0.071777,-0.116699,-0.823730,31.188965,10.742188,-3.601074
313,-0.062500,-0.249023,-0.917969,22.399902,-12.207031,-7.019043
314,-0.145020,-0.440430,-0.770508,-25.573730,-7.202148,6.591797
315,-0.155273,-0.477051,-0.705078,-47.973633,-2.990723,13.366699
316,-0.159668,-0.530273,-0.678223,-67.260742,-6.958008,27.282715
317,-0.165527,-0.581543,-0.704102,-67.321777,-6.958008,32.653809
318,-0.159668,-0.630859,-0.746094,-64.208984,-3.356934,36.926270
319,-0.160156,-0.691406,-0.797852,-59.082031,4.333496,41.625977
320,-0.200684,-0.835938,-0.927734,-40.222168,23.437500,45.043945
321,-0.229004,-0.894531,-0.981445,-24.597168,29.418945,44.128418
322,-0.240234,-0.914551,-1.063965,-7.629395,34.851074,42.968750
323,-0.249023,-0.896484,-1.122070,5.676270,44.616699,45.776367
324,-0.255859,-0.830078,-1.125977,8.361816,70.495605,62.316895
325,-0.250488,-0.793457,-1.069336,4.577637,75.988770,69.152832
326,-0.249023,-0.779297,-1.010742,3.356934,73.730469,69.030762
327,-0.224609,-0.748047,-0.885742,-6.347656,55.908203,46.142578
328,-0.236328,-0.705566,-0.834473,-17.822266,39.489746,35.461426
329,-0.273438,-0.728027,-0.885254,-31.616211,21.911621,30.395508
330,-0.301270,-0.785645,-0.947754,-43.029785,10.742188,29.479980
331,-0.342285,-0.917969,-1.082031,-66.528320,7.019043,37.475586
332,-0.351562,-0.912109,-1.140625,-73.486328,14.404297,41.503906
333,-0.360352,-0.823242,-1.113281,-72.448730,21.850586,48.583984
334,-0.408691,-0.723145,-1.036621,-46.936035,31.860352,62.927246
335,-0.466797,-0.591797,-0.847656,-31.555176,38.146973,66.162109
336,-0.520508,-0.597168,-0.729004,-15.747070,39.306641,66.528320
337,-0.589844,-0.643555,-0.645996,-2.380371,40.039062,59.326172
338,-0.656738,-0.647949,-0.418457,14.160156,33.447266,31.799316
339,-0.663574,-0.618652,-0.333008,20.874023,22.399902,20.935059
340,-0.671387,-0.576660,-0.227051,21.179199,10.437012,14.099121
341,-0.727539,-0.574219,-0.196777,12.817383,-5.065918,1.525879
342,-0.738770,-0.561035,-0.189453,8.178711,-10.864258,-5.249023
343,-0.724121,-0.516602,-0.179199,4.089355,-15.014648,-9.765625
344,-0.681152,-0.460938,-0.176758,-0.915527,-16.967773,-10.742188
345,-0.468262,-0.341309,-0.261230,-12.512207,-1.831055,-3.845215
346,-0.371582,-0.328613,-0.239258,-11.779785,6.042480,-1.525879
347,-0.283203,-0.308105,-0.240234,-6.164551,6.835938,-1.098633
348,0.124023,-0.182617,-1.018066,67.749023,-15.014648,13.244629
349,0.091797,-0.308594,-1.062988,153.198242,-58.959961,31.799316
350,0.104492,-0.374512,-1.004883,176.147461,-71.105957,40.222168
351,0.084961,-0.601074,-0.909180,149.841309,-69.274902,35.949707
352,-0.020508,-0.545410,-0.711914,81.542969,-43.884277,10.375977
353,-0.058105,-0.460938,-0.511230,84.045410,-31.372070,9.948730
354,-0.124023,-0.474609,-0.305664,86.120605,-24.475098,11.291504
355,-0.201660,-0.540039,-0.180664,80.261230,-25.268555,7.934570
356,-0.396973,-0.583496,-0.134766,72.143555,-20.507812,-20.202637
357,-0.477539,-0.583984,-0.100098,56.030273,-24.414062,-35.339355
358,-0.532227,-0.572754,-0.128906,27.832031,-35.217285,-49.682617
359,-0.451660,-0.533691,-0.531738,-33.691406,-68.115234,-72.814941
360,-0.323242,-0.554199,-0.851074,-55.297852,-74.218750,-74.462891
361,-0.222656,-0.628906,-1.272461,-53.588867,-70.861816,-72.753906
362,-0.086914,-0.675293,-1.678711,-14.831543,-46.264648,-60.363770
363,-0.009277,-0.920410,-1.893555,90.637207,35.095215,-17.944336
364,-0.258301,-1.166504,-1.670898,155.517578,46.142578,-0.488281
365,-0.509766,-1.145508,-1.010742,172.973633,17.944336,4.394531
366,-0.888184,-0.793945,-0.385742,111.389160,-47.485352,4.211426
367,-0.907715,-0.654297,-0.289062,66.772461,-40.771484,-13.916016
368,-0.805176,-0.554688,-0.241211,20.202637,-9.521484,-25.878906
369,-0.787109,-0.790039,-0.193848,-67.626953,54.260254,-22.155762
370,-0.760254,-0.968262,-0.458008,-73.242188,39.611816,-8.300781
371,-0.829590,-1.159668,-0.652344,36.499023,23.010254,17.639160
372,-0.810059,-1.149414,-0.474609,46.691895,43.823242,12.512207
373,-0.737793,-1.117676,-0.311523,44.494629,56.152344,5.798340
374,-0.592285,-1.013672,-0.022949,6.347656,49.560547,-6.103516
375,-0.552734,-0.997070,0.028809,-21.728516,40.588379,-12.817383
376,-0.532227,-1.020020,0.045410,-49.682617,33.813477,-22.949219
377,-0.474609,-1.090332,-0.023438,-110.839844,31.799316,-56.091309
378,-0.443359,-1.091309,-0.147949,-136.474609,33.630371,-71.411133
379,-0.389648,-1.035156,-0.311035,-148.315430,35.705566,-79.528809
380,-0.307617,-0.897949,-0.511719,-131.958008,30.578613,-69.946289
381,-0.310059,-0.878906,-0.521973,-106.140137,15.747070,-59.020996
382,-0.309082,-0.869629,-0.528320,-75.683594,-3.112793,-51.635742
383,-0.287598,-0.852539,-0.497070,-42.419434,-23.193359,-45.471191
384,-0.202148,-0.736816,-0.410645,-2.685547,-48.339844,-33.386230
385,-0.178223,-0.677246,-0.388672,-0.122070,-48.339844,-31.005859
386,-0.115723,-0.521484,-0.412598,2.075195,-37.353516,-32.714844
387,-0.079590,-0.435547,-0.437988,6.347656,-31.250000,-32.531738
388,-0.067871,-0.315430,-0.494141,23.559570,-20.629883,-25.573730
389,-0.078125,-0.285645,-0.519043,30.700684,-16.906738,-18.188477
390,-0.111816,-0.288574,-0.549805,33.935547,-12.573242,-9.338379
391,-0.145020,-0.309570,-0.594238,35.095215,-6.469727,-2.197266
392,-0.192383,-0.355469,-0.598145,28.869629,2.014160,11.108398
393,-0.220215,-0.385742,-0.612793,24.597168,1.037598,16.296387
394,-0.239258,-0.402832,-0.622559,19.958496,-2.136230,20.019531
395,-0.260742,-0.390137,-0.747559,7.751465,-5.371094,25.756836
396,-0.253418,-0.408203,-0.805664,5.859375,-5.676270,28.625488
397,-0.261719,-0.457520,-0.789551,3.723145,-9.582520,28.076172
398,-0.215332,-0.513184,-0.827637,-26.916504,-18.066406,19.409180
399,-0.178711,-0.563477,-0.950684,-41.503906,-15.258789,17.639160
400,-0.152344,-0.655273,-1.073242,-46.691895,-8.605957,17.395020
401,-0.133789,-0.767578,-1.168457,-45.349121,0.427246,17.395020
402,-0.117676,-0.867188,-1.219727,-42.785645,11.779785,17.456055
403,-0.138184,-0.956543,-1.216797,-42.907715,26.672363,22.094727
404,-0.173340,-0.846191,-1.199219,-43.395996,25.085449,29.052734
405,-0.230957,-0.864746,-1.211914,-38.940430,28.442383,35.461426
406,-0.159668,-0.867188,-0.828613,-52.246094,20.568848,30.944824
407,-0.147949,-0.952637,-0.971191,-54.016113,12.451172,31.433105
408,-0.158691,-1.015137,-1.006348,-48.461914,11.474609,36.621094
409,-0.312012,-1.126465,-0.996582,-48.950195,16.052246,60.546875
410,-0.401855,-1.153320,-0.962891,-51.147461,19.531250,63.903809
411,-0.438477,-1.052734,-0.931152,-45.349121,23.742676,61.523438
412,-0.460938,-0.840820,-0.780273,-15.258789,32.775879,69.519043
413,-0.529785,-0.825684,-0.712402,4.455566,30.944824,71.350098
414,-0.604980,-0.833008,-0.629395,25.573730,27.099609,69.152832
415,-0.696289,-0.861328,-0.522461,46.386719,20.202637,63.903809
416,-0.807129,-0.785156,-0.287598,77.453613,-1.831055,50.292969
417,-0.859375,-0.755859,-0.183594,79.040527,-8.239746,41.992188
418,-0.902832,-0.738281,-0.039551,64.331055,-13.610840,25.085449
419,-0.789551,-0.621582,0.076660,-5.249023,-31.066895,-24.658203
420,-0.647949,-0.486816,-0.013672,-43.945312,-38.146973,-43.212891
421,-0.460449,-0.368164,-0.196289,-63.476562,-35.888672,-47.424316
422,-0.270508,-0.285645,-0.346191,-59.020996,-23.559570,-39.062500
423,-0.174805,-0.292480,-0.467285,-40.466309,-16.052246,-28.320312
424,0.242676,-0.291504,-1.210449,16.296387,-23.559570,-13.610840
425,0.191895,-0.650391,-0.931152,150.817871,-96.252441,31.066895
426,0.101562,-0.743164,-0.937988,74.890137,-106.811523,19.226074
427,0.012207,-0.424805,-0.595703,18.798828,-79.772949,10.498047
428,-0.036621,-0.325195,-0.446777,20.690918,-62.927246,20.568848
429,-0.138672,-0.312012,-0.331055,26.062012,-42.907715,27.038574
430,-0.187500,-0.301758,-0.258301,30.395508,-20.080566,24.536133
431,-0.275879,-0.299805,-0.073242,30.212402,21.484375,3.356934
432,-0.300781,-0.305176,0.012207,24.597168,28.198242,-9.704590
433,-0.372559,-0.376953,0.052734,13.244629,23.010254,-23.498535
434,-0.492188,-0.471680,-0.044434,-14.953613,-10.314941,-68.725586
435,-0.456055,-0.439453,-0.141113,-31.188965,-30.395508,-85.754395
436,-0.404297,-0.430664,-0.270996,-49.560547,-50.476074,-89.172363
437,-0.307129,-0.480957,-0.553711,-62.011719,-71.166992,-82.519531
438,-0.219238,-0.808594,-1.520020,36.499023,-105.712891,-43.823242
439,-0.222656,-0.994629,-1.704102,100.036621,-79.833984,-25.573730
440,-0.250000,-1.428223,-2.145020,145.690918,-38.024902,-7.324219
441,-0.705078,-1.375488,-0.899902,130.065918,-11.047363,15.869141
442,-1.022949,-1.128906,-0.662598,92.102051,-23.071289,18.920898
443,-0.937500,-0.537598,-0.324707,-7.873535,-14.404297,-32.531738
444,-0.819824,-0.371582,-0.390625,-50.659180,10.498047,-37.658691
445,-0.820312,-0.449707,-0.468750,-64.086914,35.095215,-29.174805
446,-0.837402,-0.674316,-0.536133,-63.598633,24.291992,-7.751465
447,-0.895020,-1.084961,-0.999512,83.679199,29.785156,40.466309
448,-0.903809,-1.056152,-0.494141,122.802734,70.312500,45.288086
449,-0.861328,-1.022461,-0.141602,118.164062,89.355469,37.780762
450,-0.676758,-0.874512,0.128418,61.462402,90.759277,13.366699
451,-0.606445,-0.835449,0.158691,23.864746,87.036133,5.187988
452,-0.561035,-0.826172,0.160156,-12.451172,82.336426,-2.197266
453,-0.486816,-0.913574,0.164551,-75.500488,72.448730,-18.005371
454,-0.471680,-1.022461,0.138672,-106.933594,66.650391,-30.395508
455,-0.461914,-1.122559,0.056152,-137.084961,58.105469,-45.532227
456,-0.445801,-1.165527,-0.053711,-155.456543,48.156738,-60.607910
457,-0.360352,-1.078613,-0.478516,-162.231445,38.635254,-65.795898
458,-0.325684,-1.002930,-0.589844,-126.892090,28.625488,-56.457520
459,-0.253906,-0.921875,-0.551758,-29.357910,-8.056641,-31.738281
460,-0.220703,-0.877441,-0.419922,7.019043,-27.343750,-22.033691
461,-0.191895,-0.770508,-0.237793,15.808105,-56.457520,-23.376465
462,-0.176270,-0.683105,-0.250000,5.310059,-62.072754,-31.311035
463,-0.158691,-0.595703,-0.294434,-1.892090,-63.415527,-39.306641
464,-0.127441,-0.516602,-0.356934,-2.685547,-63.293457,-45.227051
465,-0.062012,-0.375977,-0.479004,6.713867,-56.884766,-44.128418
466,-0.054199,-0.342773,-0.569824,5.859375,-49.011230,-38.085938
467,-0.114746,-0.294434,-0.747559,8.544922,-21.789551,-27.709961
468,-0.118164,-0.251953,-0.752441,11.840820,-12.023926,-18.005371
469,-0.144043,-0.240723,-0.801758,12.390137,-5.920410,-6.286621
470,-0.159180,-0.239746,-0.856934,10.864258,0.244141,6.896973
471,-0.195801,-0.308105,-0.876465,13.732910,19.897461,41.259766
472,-0.249512,-0.400879,-0.813965,8.972168,25.268555,50.964355
473,-0.276367,-0.488281,-0.737793,0.732422,23.559570,51.635742
474,-0.287109,-0.601562,-0.704102,-17.578125,3.295898,36.865234
475,-0.275879,-0.666504,-0.751953,-29.541016,-4.577637,26.428223
476,-0.228516,-0.825195,-0.981934,-42.175293,-3.112793,4.821777
477,-0.202637,-0.894531,-1.086426,-39.916992,3.234863,-2.929688
478,-0.166504,-0.936035,-1.151367,-37.109375,10.620117,-4.150391
479,-0.075195,-0.824219,-1.104004,-32.592773,16.418457,13.122559
480,-0.083008,-0.732422,-1.049805,-30.944824,16.784668,24.902344
481,-0.108398,-0.589355,-1.035156,-28.991699,22.888184,34.790039
482,-0.119629,-0.666016,-0.943359,-30.700684,48.645020,41.809082
483,-0.131348,-0.801758,-0.931152,-35.217285,51.208496,38.208008
484,-0.128906,-0.921387,-0.967285,-35.583496,47.912598,33.081055
485,-0.200684,-1.034180,-1.014648,-34.973145,37.780762,44.494629
486,-0.281250,-1.103516,-1.035645,-39.184570,38.146973,51.635742
487,-0.357422,-1.125977,-0.998535,-43.518066,38.024902,56.457520
488,-0.417969,-1.073242,-0.947754,-45.898438,37.963867,56.945801
489,-0.465820,-0.875977,-0.781738,-28.991699,33.752441,51.391602
490,-0.476074,-0.801758,-0.695801,-16.906738,32.104492,47.729492
491,-0.550781,-0.742676,-0.561035,15.075684,22.338867,45.349121
492,-0.623047,-0.728516,-0.492188,33.874512,15.930176,46.752930
493,-0.707520,-0.727539,-0.416016,53.405762,10.498047,50.170898
494,-0.875977,-0.756348,-0.170898,78.491211,-3.051758,35.278320
495,-0.862793,-0.714355,-0.046387,68.908691,-10.009766,13.916016
496,-0.809570,-0.642090,0.038086,44.372559,-16.845703,-11.047363
497,-0.604492,-0.390625,-0.011230,-22.216797,-36.193848,-44.982910
498,-0.467285,-0.287598,-0.207031,-37.902832,-35.766602,-43.701172
499,-0.406738,-0.243652,-0.289062,-39.367676,-28.991699,-37.536621
500,-0.249023,-0.210938,-0.292480,-29.479980,-17.456055,-24.169922
501,-0.160156,-0.256348,-0.360352,-18.310547,-18.493652,-15.319824
502,0.187988,-0.286621,-0.939941,27.648926,-40.832520,-3.417969
503,0.175293,-0.489746,-1.044434,114.990234,-103.332520,21.545410
504,0.122559,-0.764160,-1.103027,39.062500,-114.501953,11.413574
505,0.045410,-0.672363,-0.883789,5.798340,-86.853027,0.976562
506,-0.011719,-0.508301,-0.613770,-1.647949,-72.570801,2.136230
507,-0.173828,-0.402832,-0.385742,3.845215,-46.875000,13.244629
508,-0.248047,-0.413086,-0.358887,12.939453,-21.911621,9.155273
509,-0.322266,-0.435547,-0.269531,23.742676,2.807617,-0.427246
510,-0.438477,-0.440918,0.021973,27.526855,10.375977,-27.832031
511,-0.511719,-0.459473,0.034668,18.249512,-7.690430,-44.311523
512,-0.557129,-0.478027,-0.092773,8.972168,-29.663086,-60.668945
513,-0.466797,-0.514160,-0.491699,-8.178711,-62.622070,-73.852539
514,-0.357910,-0.555176,-0.806152,-17.333984,-72.631836,-74.157715
515,-0.268555,-0.594238,-1.260742,-4.882812,-83.618164,-68.603516
516,-0.173340,-0.788086,-2.032227,132.202148,-26.855469,-16.296387
517,-0.292969,-1.144043,-2.093750,188.659668,31.555176,-1.159668
518,-0.648926,-1.310059,-0.771484,181.579590,14.465332,11.291504
519,-0.910156,-1.080078,-0.416016,127.929688,-22.583008,23.986816
520,-0.892578,-0.788086,-0.239258,64.025879,-25.390625,7.263184
521,-0.619629,-0.344238,-0.207520,-54.382324,18.310547,-32.653809
522,-0.640137,-0.394043,-0.223633,-81.481934,49.926758,-33.935547
523,-0.703613,-0.549805,-0.291992,-86.242676,65.490723,-30.395508
524,-0.742676,-1.134766,-1.181152,5.126953,-8.850098,26.306152
525,-0.904785,-1.212891,-0.765137,112.548828,3.723145,43.212891
526,-0.933105,-1.192871,-0.380859,120.178223,39.245605,39.062500
527,-0.776367,-1.056641,-0.018555,72.875977,68.969727,15.747070
528,-0.713867,-1.003906,0.089355,34.118652,68.359375,5.187988
529,-0.665039,-0.968262,0.140625,-7.019043,64.025879,-3.784180
530,-0.582520,-0.988770,0.158691,-87.768555,54.748535,-17.517090
531,-0.554688,-1.066406,0.101074,-126.770020,50.903320,-27.282715
532,-0.537109,-1.129395,0.048828,-162.048340,46.752930,-40.893555
533,-0.493652,-1.114258,-0.293457,-211.853027,35.827637,-65.429688
534,-0.475586,-1.055664,-0.518066,-204.284668,32.226562,-70.800781
535,-0.436035,-0.984863,-0.698242,-165.405273,24.047852,-69.519043
536,-0.388184,-0.919922,-0.743652,-105.712891,7.690430,-62.927246
537,-0.252441,-0.750977,-0.564941,-7.690430,-30.334473,-32.836914
538,-0.224121,-0.711914,-0.461914,5.676270,-39.550781,-25.573730
539,-0.150879,-0.550781,-0.386719,-0.061035,-43.762207,-28.259277
540,-0.114746,-0.471680,-0.375977,-2.197266,-44.799805,-33.630371
541,-0.098145,-0.401855,-0.465332,-1.770020,-44.982910,-39.489746
542,0.008789,-0.202148,-0.599609,21.179199,-32.531738,-33.447266
543,0.020508,-0.167480,-0.619629,30.212402,-23.925781,-20.568848
544,0.000000,-0.200195,-0.632324,34.179688,-13.305664,-7.812500
545,-0.072754,-0.304199,-0.647461,30.334473,9.765625,10.620117
546,-0.099609,-0.333984,-0.617676,25.329590,16.784668,19.470215
547,-0.142578,-0.383789,-0.594238,16.479492,20.080566,26.916504
548,-0.198242,-0.454590,-0.601074,-1.037598,19.836426,37.353516
549,-0.224121,-0.504883,-0.616211,-5.859375,18.005371,38.513184
550,-0.250000,-0.557129,-0.625977,-7.202148,11.718750,34.667969
551,-0.265137,-0.643555,-0.674805,-6.103516,-13.305664,17.333984
552,-0.268066,-0.692383,-0.736816,-7.995605,-22.827148,6.652832
553,-0.248047,-0.785645,-0.871582,-19.104004,-25.390625,-13.122559
554,-0.230469,-0.808594,-0.961914,-26.611328,-21.667480,-17.639160
555,-0.235352,-0.836426,-1.088867,-31.555176,-17.578125,-18.066406
556,-0.237793,-0.781738,-1.247070,-32.348633,-12.329102,-12.756348
557,-0.272949,-0.566406,-1.509766,-19.714355,9.094238,21.240234
558,-0.327637,-0.498047,-1.501465,-8.483887,28.808594,42.297363
559,-0.248535,-0.704102,-0.992188,-20.507812,49.560547,42.175293
560,-0.142090,-0.815918,-1.008301,-30.212402,45.043945,36.376953
561,-0.074219,-0.928223,-0.957031,-31.250000,40.832520,38.330078
562,-0.184570,-0.980957,-0.933105,-57.128906,42.907715,69.030762
563,-0.303711,-1.021973,-0.954590,-61.157227,52.307129,79.345703
564,-0.393066,-1.021484,-0.872559,-53.527832,55.480957,80.322266
565,-0.497559,-0.912598,-0.716309,-19.958496,45.837402,71.472168
566,-0.525391,-0.878418,-0.655273,0.061035,40.893555,65.734863
567,-0.564453,-0.880859,-0.555176,17.517090,33.386230,60.852051
568,-0.690918,-0.904785,-0.437500,50.415039,10.009766,51.574707
569,-0.770996,-0.893066,-0.362305,64.636230,0.244141,47.668457
570,-0.873047,-0.886230,-0.249512,71.899414,-7.751465,41.381836
571,-0.959961,-0.824707,-0.028809,49.011230,-26.550293,4.333496
572,-0.894043,-0.741211,0.027832,23.559570,-35.888672,-23.132324
573,-0.758301,-0.592285,0.021973,-7.141113,-45.410156,-46.142578
574,-0.419434,-0.307617,-0.207031,-34.606934,-47.363281,-46.691895
575,-0.382812,-0.282715,-0.287109,-34.240723,-40.893555,-36.437988
576,-0.327148,-0.274902,-0.327637,-31.372070,-32.409668,-30.456543
577,0.128906,-0.241211,-0.802246,1.953125,-36.193848,-12.512207
578,0.204102,-0.394531,-1.118164,92.956543,-105.224609,11.047363
579,0.163086,-0.578613,-1.032227,77.270508,-129.577637,14.404297
580,0.090820,-0.529785,-0.876953,-13.000488,-89.599609,5.249023
581,0.021484,-0.393555,-0.577637,-26.062012,-78.063965,6.286621
582,-0.065430,-0.302734,-0.395020,-24.902344,-78.186035,11.474609
583,-0.144531,-0.245117,-0.349609,-18.066406,-73.974609,14.648438
584,-0.279785,-0.240723,-0.359863,12.634277,-28.015137,11.779785
585,-0.352539,-0.277832,-0.280273,27.282715,-0.854492,2.319336
586,-0.411133,-0.305176,-0.193848,39.611816,10.375977,-30.456543
587,-0.465820,-0.321289,-0.141602,36.193848,-6.896973,-46.325684
588,-0.496582,-0.370117,-0.255859,30.273438,-26.733398,-59.509277
589,-0.468262,-0.402832,-0.416992,24.047852,-41.870117,-66.772461
590,-0.282227,-0.580078,-1.060547,39.672852,-61.035156,-52.856445
591,-0.239746,-0.753906,-1.597168,99.914551,-61.706543,-30.151367
592,-0.233398,-1.070801,-1.882324,175.842285,-32.958984,-5.249023
593,-0.561523,-1.814941,-1.293945,207.885742,29.968262,-2.319336
594,-0.681152,-1.284668,-0.355469,168.579102,-11.413574,21.118164
595,-0.895020,-1.005371,-0.196777,115.051270,-34.606934,34.606934
596,-0.830566,-0.528320,0.019043,-18.066406,-25.390625,-10.620117
597,-0.739746,-0.382812,-0.083984,-68.359375,-2.929688,-35.705566
598,-0.726562,-0.322266,-0.124023,-91.918945,22.460938,-46.447754
599,-0.789551,-0.368164,-0.164062,-97.412109,37.841797,-41.076660
600,-0.879395,-0.985840,-0.897461,-55.664062,-41.076660,21.545410
601,-1.020020,-1.286621,-1.142090,75.073242,-35.949707,41.809082
602,-0.955078,-1.288086,-0.444336,149.963379,32.470703,23.620605
603,-0.842773,-1.221191,-0.266113,142.028809,49.865723,5.981445
604,-0.759277,-1.129883,-0.078613,117.370605,62.988281,-10.437012
605,-0.682617,-1.069336,0.032227,76.232910,74.401855,-27.832031
606,-0.479980,-1.043945,0.123047,-28.320312,95.642090,-60.913086
607,-0.403809,-1.027344,0.149414,-84.838867,104.797363,-72.265625
608,-0.314941,-0.979980,0.035156,-178.588867,109.802246,-70.739746
609,-0.312988,-0.987305,-0.126953,-200.683594,106.201172,-64.025879
610,-0.346680,-1.014160,-0.261719,-193.481445,94.665527,-56.274414
611,-0.373047,-1.033203,-0.433594,-102.966309,29.418945,-41.564941
612,-0.324219,-0.978027,-0.401367,-51.757812,-5.798340,-34.423828
613,-0.284180,-0.919434,-0.354980,-20.263672,-31.127930,-27.221680
614,-0.250488,-0.837891,-0.305176,-11.352539,-42.968750,-26.550293
615,-0.171875,-0.626465,-0.309570,-19.348145,-44.677734,-32.348633
616,-0.139160,-0.534180,-0.341797,-18.249512,-42.541504,-35.339355
617,-0.118164,-0.422852,-0.473633,4.394531,-37.597656,-36.682129
618,-0.108887,-0.357422,-0.508301,19.348145,-29.357910,-37.353516
619,-0.078613,-0.279297,-0.504395,28.381348,-21.179199,-31.677246
620,-0.077637,-0.248535,-0.537598,25.878906,-7.324219,-5.004883
621,-0.128906,-0.292480,-0.593750,20.507812,1.892090,7.568359
622,-0.163574,-0.302734,-0.633789,16.845703,9.948730,16.357422
623,-0.228027,-0.302246,-0.705078,10.681152,11.413574,31.372070
624,-0.251465,-0.346680,-0.813965,12.878418,10.131836,36.254883
625,-0.234863,-0.412598,-0.842773,17.822266,11.535645,39.306641
626,-0.232910,-0.489258,-0.779785,17.639160,8.056641,41.320801
627,-0.244629,-0.631836,-0.741211,-10.742188,-8.422852,35.461426
628,-0.249512,-0.702637,-0.814941,-33.569336,-7.324219,28.015137
629,-0.234863,-0.780762,-0.909668,-50.537109,-1.953125,20.019531
630,-0.192871,-0.986328,-1.152832,-53.466797,13.793945,6.652832
631,-0.165039,-1.038086,-1.192383,-49.255371,24.169922,2.746582
632,-0.124512,-0.912598,-1.129883,-45.166016,32.226562,16.052246
633,-0.183105,-0.790527,-1.188477,-41.198730,35.278320,31.555176
634,-0.197754,-0.787598,-1.070801,-38.391113,44.128418,34.545898
635,-0.166504,-0.756348,-0.854492,-43.212891,43.090820,29.724121
636,-0.085938,-0.855957,-0.879883,-42.419434,17.456055,19.348145
637,-0.112793,-0.919922,-0.948242,-36.010742,10.559082,29.724121
638,-0.198730,-1.024902,-0.986328,-38.574219,17.272949,46.142578
639,-0.391602,-1.170410,-0.903320,-57.556152,38.208008,63.659668
640,-0.431641,-1.094238,-0.842285,-60.241699,42.236328,63.110352
641,-0.468750,-0.997070,-0.798340,-47.607422,40.588379,61.340332
642,-0.508301,-0.938477,-0.744141,-23.193359,37.658691,57.800293
643,-0.601074,-0.890625,-0.565918,25.573730,23.193359,52.795410
644,-0.645508,-0.875488,-0.461914,46.508789,11.413574,51.574707
645,-0.702148,-0.852051,-0.372070,65.490723,-2.319336,51.391602
646,-0.819336,-0.851562,-0.268555,81.176758,-13.610840,50.170898
647,-1.015137,-0.875977,-0.011719,79.223633,-33.325195,23.193359
648,-0.989258,-0.815430,0.053223,55.969238,-42.724609,-4.699707
649,-0.698730,-0.485840,0.025391,-11.352539,-58.227539,-47.668457
650,-0.468750,-0.327148,-0.151367,-30.456543,-56.213379,-44.860840
651,-0.382324,-0.246582,-0.214844,-39.611816,-44.677734,-33.508301
652,-0.253906,-0.270020,-0.263672,-48.034668,-20.019531,-24.047852
653,-0.109863,-0.340820,-0.352051,-38.635254,-18.798828,-20.690918
654,0.332520,-0.388672,-0.920410,0.732422,-85.144043,-10.864258
655,0.243164,-0.580566,-1.132812,62.072754,-155.395508,5.493164
656,0.109863,-0.616211,-1.054199,-14.099121,-126.464844,0.000000
657,0.024414,-0.448730,-0.722168,-33.691406,-105.102539,7.446289
658,-0.045410,-0.351074,-0.509766,-30.029297,-93.200684,21.545410
659,-0.158203,-0.329102,-0.402344,-22.644043,-76.965332,28.015137
660,-0.254395,-0.300781,-0.365723,-1.220703,-10.925293,22.705078
661,-0.290039,-0.303711,-0.237793,11.657715,20.507812,14.038086
662,-0.374023,-0.337402,-0.015137,28.076172,29.724121,-13.916016
663,-0.460938,-0.390137,-0.027344,29.357910,15.930176,-31.005859
664,-0.554199,-0.438965,-0.063477,27.404785,-3.234863,-53.344727
665,-0.596680,-0.428711,-0.122559,19.592285,-25.268555,-73.974609
666,-0.518555,-0.476562,-0.420898,-11.413574,-53.771973,-82.763672
667,-0.398926,-0.558105,-0.783691,-20.141602,-62.072754,-79.772949
668,-0.263672,-0.673828,-1.394531,22.155762,-75.500488,-62.927246
669,-0.092285,-1.511230,-2.564941,171.447754,-49.255371,-12.817383
670,-0.329590,-2.032715,-2.355957,183.166504,16.601562,-16.906738
671,-0.916016,-1.157227,-0.330078,119.873047,-27.221680,26.184082
672,-1.055664,-0.861328,-0.141602,59.875488,-34.729004,8.422852
673,-0.948730,-0.542480,-0.053223,-14.526367,-30.944824,-20.324707
674,-0.769043,-0.291016,-0.154297,-78.735352,-11.169434,-39.550781
675,-0.762207,-0.282227,-0.360840,-100.769043,45.776367,-40.832520
676,-0.810547,-0.483398,-0.250488,-91.796875,42.602539,-22.705078
677,-0.785645,-0.912109,-0.992188,-45.654297,-16.479492,14.709473
678,-0.991699,-1.129395,-0.626953,138.488770,39.978027,43.701172
679,-0.941406,-1.113281,-0.305176,139.160156,76.721191,38.208008
680,-0.834473,-1.049316,-0.133789,129.455566,90.820312,27.465820
681,-0.629395,-0.932129,0.092773,83.007812,99.121094,3.662109
682,-0.552246,-0.925293,0.181152,39.062500,105.041504,-11.474609
683,-0.484375,-0.927246,0.236328,-13.305664,107.116699,-23.437500
684,-0.467285,-1.112793,0.199707,-105.590820,99.121094,-40.893555
685,-0.468262,-1.207520,0.143066,-144.042969,89.477539,-52.734375
686,-0.418945,-1.194336,-0.231934,-189.331055,64.331055,-62.927246
687,-0.404785,-1.140137,-0.457520,-170.288086,48.583984,-58.471680
688,-0.390137,-1.091797,-0.535645,-122.314453,26.489258,-53.222656
689,-0.281250,-0.943848,-0.404785,-17.089844,-28.198242,-46.630859
690,-0.218262,-0.849121,-0.288086,4.455566,-50.231934,-41.870117
691,-0.186035,-0.752441,-0.252441,6.042480,-65.734863,-39.001465
692,-0.177734,-0.678711,-0.252441,-0.366211,-72.937012,-39.611816
693,-0.126465,-0.522461,-0.305176,-8.178711,-74.096680,-50.659180
694,-0.068848,-0.436523,-0.351074,-2.319336,-74.523926,-53.039551
695,-0.014648,-0.345703,-0.488770,10.437012,-65.002441,-45.288086
696,-0.016602,-0.317871,-0.584961,13.000488,-51.818848,-37.109375
697,-0.048340,-0.318359,-0.672363,12.268066,-34.606934,-27.343750
698,-0.118164,-0.281738,-0.754883,12.817383,-0.732422,-9.521484
699,-0.133301,-0.253418,-0.750000,12.390137,7.080078,2.807617
700,-0.161133,-0.240723,-0.773438,11.779785,8.850098,17.578125
701,-0.252930,-0.349121,-0.866211,17.150879,14.770508,44.311523
702,-0.281738,-0.439453,-0.803223,16.784668,17.883301,49.560547
703,-0.307617,-0.535156,-0.750488,10.925293,14.343262,47.607422
704,-0.319336,-0.663086,-0.712402,-16.418457,-6.469727,28.869629
705,-0.291504,-0.708984,-0.777344,-36.315918,-13.427734,17.456055
706,-0.274902,-0.774414,-0.923340,-52.551270,-13.854980,7.873535
707,-0.258301,-0.846191,-1.074219,-59.326172,-7.934570,0.305176
708,-0.233398,-0.896484,-1.190430,-52.612305,13.000488,1.892090
709,-0.207031,-0.886719,-1.212891,-45.654297,18.554688,15.686035
710,-0.215332,-0.760742,-1.181152,-36.682129,19.348145,32.287598
711,-0.221191,-0.712891,-1.008789,-38.513184,45.898438,52.795410
712,-0.166992,-0.737305,-0.886230,-42.175293,52.246094,50.415039
713,-0.123535,-0.833984,-0.833008,-40.039062,48.400879,45.593262
714,-0.157227,-1.000000,-0.892090,-38.513184,31.982422,46.997070
715,-0.237305,-1.083496,-0.939453,-39.123535,31.311035,57.922363
716,-0.330566,-1.174316,-0.923340,-39.611816,32.165527,65.734863
717,-0.492676,-1.196289,-0.816895,-31.494141,24.780273,64.697266
718,-0.544434,-1.114746,-0.765625,-13.000488,17.150879,58.654785
719,-0.612305,-0.940918,-0.632324,13.793945,14.953613,57.800293
720,-0.668945,-0.894531,-0.545898,28.259277,15.930176,57.861328
721,-0.728027,-0.853027,-0.433594,44.738770,14.099121,53.283691
722,-0.826172,-0.762695,-0.187500,66.589355,1.647949,34.484863
723,-0.838379,-0.709961,-0.085938,63.842773,-7.751465,20.874023
724,-0.805664,-0.646973,-0.033203,51.025391,-13.977051,6.103516
725,-0.733398,-0.536621,0.041016,-1.464844,-30.700684,-28.991699
726,-0.627930,-0.433105,-0.080078,-24.841309,-36.071777,-42.175293
727,-0.463379,-0.337891,-0.229004,-34.484863,-33.569336,-43.212891
728,-0.288574,-0.265137,-0.367188,-29.357910,-20.812988,-26.367188
729,-0.210449,-0.293457,-0.434570,-15.014648,-16.601562,-14.892578
730,0.100586,-0.320801,-0.731934,18.920898,-39.672852,-1.159668
731,0.049316,-0.519531,-0.908691,82.702637,-120.849609,18.859863
732,-0.049805,-0.594238,-1.103516,33.630371,-134.399414,25.207520
733,-0.126465,-0.622559,-0.972656,-9.948730,-96.557617,20.385742
734,-0.171875,-0.497559,-0.649902,-38.879395,-72.021484,16.784668
735,-0.214355,-0.310059,-0.369629,-36.621094,-54.138184,17.272949
736,-0.238281,-0.291504,-0.352539,-19.836426,-35.400391,15.502930
737,-0.253418,-0.276855,-0.310547,-0.122070,-10.070801,11.596680
738,-0.289551,-0.291504,-0.119141,34.484863,28.991699,-3.784180
739,-0.336426,-0.329590,-0.044434,43.823242,28.198242,-16.723633
740,-0.383301,-0.360352,-0.009766,43.395996,17.822266,-31.921387
741,-0.501953,-0.399414,-0.131836,32.104492,-19.165039,-61.523438
742,-0.516602,-0.413574,-0.301270,29.968262,-39.062500,-70.617676
743,-0.489746,-0.460449,-0.499023,32.897949,-53.344727,-72.326660
744,-0.371094,-0.676758,-1.143555,42.358398,-78.796387,-66.406250
745,-0.233398,-0.830078,-1.800293,83.374023,-84.838867,-51.147461
746,-0.206055,-1.476562,-2.600098,116.394043,-51.940918,-37.170410
747,-0.790039,-1.362793,-0.847168,115.234375,6.347656,-1.525879
748,-1.037109,-1.089355,-0.351074,101.013184,-21.484375,15.991211
749,-1.142090,-0.793457,-0.101562,71.960449,-33.020020,14.099121
750,-1.022461,-0.426758,-0.131836,19.104004,-29.052734,18.432617
751,-0.975586,-0.552734,-0.270020,13.061523,-14.953613,26.489258
752,-0.996582,-0.856934,-0.431641,-7.629395,-9.277344,31.433105
753,-0.932617,-1.006836,-0.717773,-22.766113,1.281738,29.541016
754,-0.829102,-0.904785,-0.387695,63.842773,59.143066,22.155762
755,-0.776367,-0.906738,-0.204590,77.941895,78.247070,13.366699
756,-0.723145,-0.866699,-0.077637,68.908691,91.491699,1.831055
757,-0.630859,-0.824219,0.032715,28.015137,109.130859,-20.751953
758,-0.602051,-0.861816,0.036621,0.061035,117.919922,-31.616211
759,-0.574707,-0.928223,0.032227,-28.442383,128.723145,-41.259766
760,-0.524414,-1.083984,0.116699,-98.327637,133.239746,-53.405762
761,-0.509277,-1.188477,0.075684,-130.310059,120.361328,-53.222656
762,-0.492188,-1.254883,-0.011719,-155.273438,101.928711,-54.504395
763,-0.447754,-1.246582,-0.166504,-161.071777,60.852051,-53.833008
764,-0.398926,-1.134766,-0.486816,-128.784180,38.024902,-51.818848
765,-0.371582,-1.104004,-0.501465,-80.139160,13.549805,-48.217773
766,-0.218750,-0.950195,-0.333008,-11.718750,-34.423828,-46.508789
767,-0.153320,-0.828613,-0.258301,-1.892090,-55.114746,-44.433594
768,-0.124023,-0.747070,-0.251953,-4.394531,-69.946289,-45.227051
769,-0.100586,-0.569824,-0.326660,-15.319824,-78.247070,-54.626465
770,-0.073242,-0.488281,-0.378906,-13.244629,-77.087402,-57.495117
771,-0.073730,-0.439453,-0.563965,2.502441,-69.824219,-58.715820
772,0.029785,-0.233398,-0.612793,54.138184,-38.574219,-46.142578
773,0.053711,-0.170898,-0.579590,65.490723,-25.634766,-26.306152
774,0.035156,-0.158203,-0.589844,63.903809,-13.549805,-2.014160
775,-0.047852,-0.209473,-0.611816,54.138184,-0.061035,19.348145
776,-0.207031,-0.294922,-0.658691,27.404785,17.028809,36.376953
777,-0.259766,-0.320312,-0.659668,14.038086,19.042969,39.062500
778,-0.294434,-0.368652,-0.705566,4.577637,18.249512,40.039062
779,-0.291992,-0.434570,-0.742676,-0.854492,17.639160,39.733887
780,-0.227539,-0.560547,-0.701172,-10.864258,13.610840,37.475586
781,-0.210938,-0.646484,-0.718750,-22.216797,8.178711,33.264160
782,-0.162109,-0.808594,-0.883301,-41.198730,5.798340,18.981934
783,-0.133789,-0.874512,-0.982422,-40.649414,8.117676,13.122559
784,-0.117188,-0.935547,-1.066895,-36.010742,12.145996,9.643555
785,-0.107422,-0.975098,-1.107422,-26.000977,20.507812,8.972168
786,-0.150391,-0.835449,-1.123047,-24.414062,22.705078,16.845703
787,-0.223633,-0.724609,-1.149902,-26.245117,30.578613,32.714844
788,-0.289062,-0.740723,-0.944336,-29.296875,42.114258,34.301758
789,-0.260254,-0.809570,-0.918457,-32.409668,32.409668,30.273438
790,-0.211426,-0.883301,-0.951172,-36.804199,28.137207,32.043457
791,-0.249512,-1.027832,-1.022461,-54.321289,36.621094,57.006836
792,-0.341797,-1.109863,-1.043945,-63.232422,47.851562,72.753906
793,-0.463867,-1.197266,-1.043457,-65.368652,55.725098,79.895020
794,-0.565430,-1.087402,-0.881836,-41.687012,54.626465,67.932129
795,-0.577637,-0.985352,-0.791016,-18.920898,50.354004,62.805176
796,-0.581055,-0.907227,-0.654297,0.122070,47.058105,57.678223
797,-0.616699,-0.793945,-0.420898,34.301758,31.799316,47.973633
798,-0.665039,-0.756348,-0.332031,53.161621,19.531250,43.884277
799,-0.746582,-0.738770,-0.209473,70.556641,3.845215,39.001465
800,-0.803711,-0.704102,-0.142578,81.604004,-13.000488,33.142090
801,-0.867188,-0.670410,-0.015625,73.486328,-28.442383,19.836426
802,-0.875488,-0.643555,0.083984,47.302246,-30.822754,5.187988
803,-0.820801,-0.580078,0.094727,9.643555,-32.653809,-12.451172
804,-0.509766,-0.320312,-0.172852,-38.391113,-27.099609,-21.545410
805,-0.423340,-0.316895,-0.189941,-41.870117,-15.747070,-15.502930
806,-0.288086,-0.333984,-0.198730,-42.724609,-7.385254,-15.502930
807,-0.168457,-0.321777,-0.346680,-31.982422,-9.765625,-13.977051
808,0.267578,-0.310059,-0.955566,22.521973,-47.729492,-0.793457
809,0.174805,-0.596191,-1.081055,107.299805,-115.905762,21.362305
810,0.136230,-0.815918,-1.177246,28.015137,-85.693359,11.535645
811,0.076660,-0.626953,-0.747559,6.774902,-61.584473,3.479004
812,-0.010254,-0.361328,-0.334473,5.004883,-58.410645,16.113281
813,-0.094238,-0.363770,-0.301270,10.314941,-45.776367,18.676758
814,-0.189453,-0.368652,-0.291016,15.747070,-23.803711,11.718750
815,-0.285156,-0.404785,-0.236328,25.939941,-1.586914,-0.732422
816,-0.418457,-0.422852,-0.025879,33.081055,9.460449,-39.978027
817,-0.450195,-0.407715,-0.006348,24.597168,-4.089355,-59.020996
818,-0.472656,-0.401367,-0.090820,10.742188,-23.193359,-74.279785
819,-0.419434,-0.415039,-0.379883,-23.132324,-54.687500,-80.078125
820,-0.346191,-0.477051,-0.618652,-37.231445,-65.246582,-73.669434
821,-0.235352,-0.716309,-1.477051,40.161133,-74.768066,-41.381836
822,-0.222656,-0.974121,-1.856445,108.093262,-53.161621,-22.094727
823,-0.223145,-1.611816,-2.518555,175.537109,-27.893066,-5.615234
824,-1.031738,-1.290527,-0.555664,169.006348,-27.954102,33.264160
825,-1.110840,-1.029297,-0.262695,106.567383,-36.010742,22.705078
826,-0.998535,-0.740234,-0.170410,36.071777,-33.752441,1.220703
827,-0.828613,-0.471191,-0.308105,-60.485840,16.662598,-13.305664
828,-0.878418,-0.588379,-0.342773,-73.181152,36.499023,-8.789062
829,-0.919922,-0.839355,-0.441895,-75.439453,22.644043,5.981445
830,-0.875977,-1.126953,-0.770508,64.819336,42.968750,19.958496
831,-0.822754,-1.091797,-0.420898,106.811523,74.890137,19.653320
832,-0.747559,-1.038086,-0.169434,110.778809,93.078613,13.854980
833,-0.658203,-0.966797,-0.018555,94.299316,100.280762,4.211426
834,-0.510742,-0.881348,0.122070,27.160645,102.844238,-16.113281
835,-0.465820,-0.873047,0.167969,-16.418457,100.769043,-24.047852
836,-0.439941,-0.984863,0.152832,-102.416992,87.951660,-34.362793
837,-0.436523,-1.068359,0.123535,-138.061523,77.941895,-43.518066
838,-0.444336,-1.154785,0.039062,-167.175293,62.316895,-53.833008
839,-0.432129,-1.181152,-0.328613,-183.959961,35.827637,-68.664551
840,-0.409180,-1.125977,-0.503418,-158.142090,25.878906,-67.993164
841,-0.364746,-1.075684,-0.561035,-109.558105,8.911133,-59.997559
842,-0.333984,-1.051758,-0.531738,-55.725098,-12.817383,-50.476074
843,-0.227539,-0.910645,-0.332031,8.605957,-46.997070,-37.536621
844,-0.187500,-0.813477,-0.282715,9.277344,-54.260254,-36.987305
845,-0.164551,-0.713379,-0.275391,0.549316,-55.908203,-41.381836
846,-0.114746,-0.536133,-0.293457,-12.023926,-55.603027,-52.490234
847,-0.079590,-0.447754,-0.339844,-11.291504,-57.312012,-55.358887
848,-0.052734,-0.371094,-0.417969,-3.234863,-58.837891,-53.161621
849,-0.086914,-0.310059,-0.566406,16.052246,-51.391602,-39.794922
850,-0.120605,-0.299316,-0.655273,23.498535,-37.658691,-32.897949
851,-0.144043,-0.233887,-0.679199,28.564453,-16.540527,-6.713867
852,-0.196289,-0.260254,-0.748535,26.672363,-8.911133,7.934570
853,-0.234863,-0.264160,-0.819336,25.024414,-0.427246,20.812988
854,-0.247070,-0.289062,-0.902344,25.390625,12.329102,35.766602
855,-0.303711,-0.446777,-0.795898,19.165039,37.109375,57.434082
856,-0.305664,-0.524414,-0.727051,9.094238,36.010742,57.678223
857,-0.276367,-0.565918,-0.685547,-2.014160,26.306152,51.025391
858,-0.221191,-0.648438,-0.735840,-28.686523,0.610352,31.616211
859,-0.196777,-0.706543,-0.836426,-37.719727,-7.934570,20.324707
860,-0.174805,-0.780762,-0.961914,-42.297363,-10.131836,10.925293
861,-0.145996,-0.944336,-1.149902,-37.231445,2.807617,-1.831055
862,-0.118652,-0.943359,-1.131348,-30.456543,8.422852,-1.159668
863,-0.112793,-0.887695,-1.080566,-29.357910,9.155273,7.995605
864,-0.237305,-0.706055,-1.124512,-32.592773,22.216797,35.644531
865,-0.247559,-0.737305,-1.013184,-37.780762,38.574219,40.527344
866,-0.218262,-0.803223,-0.913086,-43.273926,43.334961,42.419434
867,-0.191895,-1.091309,-0.976562,-44.372559,39.611816,45.898438
868,-0.214844,-1.167480,-0.999023,-43.640137,38.818359,51.147461
869,-0.395508,-1.269531,-1.003906,-39.855957,35.461426,59.875488
870,-0.463379,-1.215820,-0.937988,-30.334473,32.958984,56.640625
871,-0.482910,-1.075684,-0.828125,-11.596680,27.770996,50.476074
872,-0.470703,-0.926758,-0.687012,10.681152,23.803711,49.804688
873,-0.506348,-0.760254,-0.490723,21.057129,20.629883,51.574707
874,-0.558105,-0.724609,-0.413086,37.963867,14.648438,52.429199
875,-0.746582,-0.706055,-0.249023,77.575684,0.976562,53.161621
876,-0.844727,-0.727051,-0.143555,87.585449,-6.652832,46.569824
877,-0.901855,-0.727051,-0.087402,84.289551,-11.230469,37.414551
878,-0.926758,-0.688965,0.075195,38.391113,-18.188477,-0.488281
879,-0.821289,-0.572754,0.077148,2.197266,-25.268555,-20.446777
880,-0.643555,-0.422363,-0.051270,-28.808594,-28.442383,-32.348633
881,-0.494629,-0.332031,-0.210938,-41.625977,-22.888184,-31.799316
882,-0.342773,-0.298828,-0.280273,-40.588379,-8.789062,-20.690918
883,-0.272461,-0.315918,-0.270020,-37.902832,-8.789062,-15.502930
884,-0.144531,-0.371094,-0.354004,3.906250,-99.853516,0.244141
885,0.085938,-0.605957,-0.977051,46.936035,-184.326172,10.375977
886,0.061523,-0.630371,-1.275391,28.930664,-191.528320,13.977051
887,0.020996,-0.603027,-1.219727,-11.291504,-150.634766,17.700195
888,-0.098633,-0.409668,-0.615723,-22.277832,-91.918945,35.156250
889,-0.172852,-0.397461,-0.471191,-13.000488,-69.946289,33.630371
890,-0.189453,-0.380859,-0.429688,-6.408691,-41.748047,25.390625
891,-0.236328,-0.370605,-0.262207,5.187988,19.775391,2.746582
892,-0.264648,-0.395020,-0.164551,12.145996,26.977539,-12.451172
893,-0.290527,-0.403320,-0.141602,17.944336,16.357422,-27.404785
894,-0.327637,-0.420410,-0.215820,20.996094,-3.540039,-41.503906
895,-0.313477,-0.425293,-0.540527,33.752441,-45.654297,-65.368652
896,-0.297363,-0.430176,-0.695312,51.147461,-52.978516,-69.519043
897,-0.322754,-0.480469,-0.766602,62.377930,-40.100098,-71.472168
898,-0.384277,-0.796875,-1.020020,99.243164,9.887695,-75.134277
899,-0.333496,-1.178223,-1.332031,129.455566,23.742676,-71.472168
900,-0.787109,-1.456543,-0.663574,179.260254,-78.063965,-2.807617
901,-1.490723,-1.263184,-0.044434,131.164551,-107.299805,29.785156
902,-1.339355,-0.867676,0.046875,32.714844,-97.839355,7.446289
903,-1.070312,-0.520508,-0.091309,-49.804688,-77.026367,-9.338379
904,-0.735840,-0.285156,-0.410156,-123.352051,-1.220703,-14.343262
905,-0.732910,-0.371094,-0.465820,-114.929199,8.117676,-4.394531
906,-0.792969,-0.648438,-0.651367,-98.083496,-31.250000,16.296387
907,-0.881836,-1.177734,-1.159668,92.163086,-5.493164,15.014648
908,-0.868652,-1.132812,-0.712891,157.775879,56.823730,3.112793
909,-0.719238,-1.107422,-0.166992,142.639160,128.295898,-19.775391
910,-0.624512,-1.058105,0.016602,106.811523,134.887695,-23.376465
911,-0.498535,-1.018066,0.123047,23.437500,124.450684,-34.973145
912,-0.453613,-1.026367,0.129883,-11.291504,118.835449,-46.020508
913,-0.416992,-1.042969,0.184570,-49.011230,115.539551,-57.128906
914,-0.378906,-1.127441,0.210938,-132.324219,90.270996,-65.612793
915,-0.387207,-1.184570,0.144531,-166.137695,67.077637,-66.040039
916,-0.393066,-1.221680,-0.191406,-173.767090,14.282227,-70.434570
917,-0.397461,-1.212402,-0.301270,-142.883301,-11.352539,-76.843262
918,-0.378418,-1.156250,-0.346191,-103.515625,-35.644531,-85.205078
919,-0.299316,-1.028809,-0.312012,-66.711426,-57.006836,-87.768555
920,-0.126953,-0.809082,-0.297852,-29.541016,-85.815430,-75.927734
921,-0.090820,-0.717285,-0.323730,-23.559570,-89.477539,-69.885254
922,-0.085449,-0.565918,-0.385742,-13.793945,-82.519531,-64.758301
923,-0.074707,-0.500977,-0.403809,-4.760742,-76.477051,-63.476562
924,-0.091797,-0.466309,-0.522949,9.399414,-67.443848,-61.218262
925,-0.084473,-0.371094,-0.611816,33.630371,-49.743652,-56.091309
926,-0.012207,-0.152344,-0.640625,75.317383,-12.512207,-15.136719
927,-0.041992,-0.141602,-0.605469,80.261230,5.493164,14.465332
928,-0.131836,-0.196289,-0.617676,74.462891,20.080566,39.184570
929,-0.274414,-0.246582,-0.605957,52.368164,39.489746,66.650391
930,-0.329590,-0.252930,-0.642090,36.071777,40.100098,70.617676
931,-0.422852,-0.362305,-0.790039,21.911621,22.338867,62.438965
932,-0.347168,-0.458496,-0.837402,20.019531,16.967773,57.983398
933,-0.231934,-0.547363,-0.757812,10.375977,19.409180,59.875488
934,-0.159180,-0.789062,-0.738281,-39.367676,23.498535,57.067871
935,-0.131348,-0.891113,-0.798340,-55.236816,25.024414,46.997070
936,-0.113770,-0.965332,-0.858887,-63.903809,26.428223,36.193848
937,-0.105469,-1.023438,-0.999512,-67.871094,30.761719,24.291992
938,-0.135254,-1.030273,-1.058594,-64.575195,33.569336,22.827148
939,-0.157715,-0.941895,-1.145508,-45.288086,44.006348,18.493652
940,-0.145996,-0.872559,-1.020508,-38.452148,45.532227,20.446777
941,-0.181641,-0.899902,-0.855469,-35.888672,33.203125,19.409180
942,-0.186523,-0.894043,-0.890625,-38.635254,16.418457,16.235352
943,-0.214844,-0.944824,-0.992676,-43.090820,15.502930,40.039062
944,-0.257324,-1.006348,-0.994141,-48.767090,26.367188,58.166504
945,-0.347168,-1.101074,-0.961426,-57.678223,39.306641,73.791504
946,-0.496582,-1.181152,-0.867188,-58.044434,54.138184,79.223633
947,-0.539551,-1.089355,-0.806641,-40.466309,54.138184,71.228027
948,-0.562988,-0.995117,-0.738770,-20.263672,55.053711,65.490723
949,-0.570312,-0.916016,-0.640137,-0.183105,54.504395,62.255859
950,-0.596191,-0.873047,-0.523926,20.935059,47.363281,60.302734
951,-0.708496,-0.833008,-0.296387,64.819336,10.986328,54.138184
952,-0.797363,-0.827637,-0.236328,84.533691,-8.056641,50.109863
953,-0.920898,-0.819336,-0.083984,92.285156,-27.099609,29.113770
954,-0.916992,-0.798340,-0.006836,72.937012,-27.587891,11.413574
955,-0.859863,-0.733887,0.060059,40.771484,-27.770996,-10.925293
956,-0.524902,-0.431152,-0.054199,-25.390625,-30.273438,-39.916992
957,-0.422363,-0.345215,-0.155273,-38.696289,-26.184082,-34.545898
958,-0.363281,-0.321289,-0.210938,-43.090820,-19.287109,-26.123047
959,-0.333008,-0.343750,-0.206543,-44.677734,-13.916016,-21.057129
960,-0.185547,-0.374023,-0.175293,-51.879883,-26.245117,-19.287109
961,0.165039,-0.390625,-0.441895,-44.311523,-76.110840,-16.113281
962,0.113281,-0.572754,-1.017090,21.057129,-168.334961,-1.464844
963,0.072266,-0.560547,-1.036133,-18.249512,-144.958496,6.835938
964,0.019043,-0.471680,-0.764160,-37.292480,-112.121582,15.319824
965,-0.032227,-0.390625,-0.540039,-36.926270,-93.872070,26.184082
966,-0.166016,-0.372070,-0.415527,-19.348145,-53.833008,25.390625
967,-0.212891,-0.372559,-0.383301,-8.300781,-24.597168,15.563965
968,-0.266113,-0.389160,-0.304688,1.342773,0.305176,1.770020
969,-0.378418,-0.396973,-0.231934,16.662598,11.291504,-32.836914
970,-0.474609,-0.406738,-0.259277,22.705078,3.662109,-50.292969
971,-0.577148,-0.438965,-0.289551,24.475098,-6.408691,-70.007324
972,-0.621582,-0.439941,-0.351562,18.005371,-15.869141,-87.829590
973,-0.542480,-0.477539,-0.703613,-0.549316,-24.963379,-91.064453
974,-0.395020,-0.521484,-1.150391,16.845703,-29.602051,-74.645996
975,-0.344238,-0.687500,-1.585938,80.688477,-29.907227,-44.921875
976,-0.056641,-1.777832,-2.775391,180.236816,12.145996,-10.986328
977,-0.347168,-1.509766,-1.448730,205.505371,28.747559,3.540039
978,-0.853516,-1.143066,-0.399902,202.880859,-1.403809,32.165527
979,-1.063965,-0.679688,0.171875,85.083008,-13.061523,1.708984
980,-0.917969,-0.408691,0.190918,7.507324,-2.563477,-15.625000
981,-0.793945,-0.295410,0.061523,-48.645020,15.258789,-17.456055
982,-0.777832,-0.325684,-0.023926,-77.026367,29.968262,-15.563965
983,-0.769043,-0.698730,-0.273438,-84.411621,-18.066406,16.845703
984,-0.899902,-1.231934,-1.026367,46.875000,-10.742188,30.273438
985,-0.859863,-1.242676,-0.769043,100.830078,36.987305,17.700195
986,-0.760254,-1.214844,-0.490723,116.760254,78.735352,2.685547
987,-0.534180,-1.112305,-0.045898,89.233398,110.473633,-17.395020
988,-0.461914,-1.068359,0.056152,53.710938,109.497070,-26.489258
989,-0.407715,-1.031738,0.119141,13.061523,104.919434,-33.447266
990,-0.383301,-1.026367,0.111328,-29.235840,100.341797,-37.780762
991,-0.400879,-1.088867,0.059570,-108.276367,91.979980,-43.640137
992,-0.406250,-1.111816,-0.018555,-134.521484,83.679199,-45.410156
993,-0.402832,-1.132324,-0.150391,-144.287109,70.556641,-46.813965
994,-0.368652,-1.109375,-0.292480,-109.008789,29.724121,-48.767090
995,-0.355469,-1.061523,-0.281250,-80.566406,3.723145,-50.781250
996,-0.312988,-0.971191,-0.224121,-54.565430,-21.911621,-51.086426
997,-0.215820,-0.795898,-0.211914,-31.066895,-55.419922,-43.701172
998,-0.194824,-0.722656,-0.240234,-31.066895,-60.058594,-43.395996
999,-0.167480,-0.652344,-0.271484,-32.287598,-60.791016,-46.691895
1000,-0.107422,-0.534180,-0.341309,-26.000977,-59.509277,-54.443359
1001,-0.083984,-0.480469,-0.389648,-19.042969,-56.762695,-54.443359
1002,-0.078613,-0.449707,-0.468750,-8.972168,-51.696777,-50.292969
1003,-0.090820,-0.370605,-0.629883,22.888184,-25.085449,-34.362793
1004,-0.071289,-0.313477,-0.617676,34.057617,-10.375977,-18.615723
1005,-0.082520,-0.301270,-0.620117,36.804199,3.234863,0.671387
1006,-0.128906,-0.323242,-0.630859,34.057617,13.671875,18.493652
1007,-0.245605,-0.357422,-0.710938,27.038574,16.662598,38.513184
1008,-0.278320,-0.380371,-0.828613,28.686523,14.648438,41.870117
1009,-0.260742,-0.444824,-0.862305,29.907227,19.409180,43.457031
1010,-0.214844,-0.536621,-0.723145,6.530762,21.789551,45.715332
1011,-0.222656,-0.602539,-0.714844,-13.122559,15.869141,42.724609
1012,-0.229492,-0.669434,-0.758301,-31.188965,8.789062,35.827637
1013,-0.231934,-0.737793,-0.836914,-43.762207,3.356934,26.000977
1014,-0.220215,-0.846191,-1.026855,-52.734375,3.540039,8.483887
1015,-0.218262,-0.903320,-1.114258,-53.649902,11.108398,4.516602
1016,-0.205078,-0.929688,-1.134766,-51.818848,22.766113,9.887695
1017,-0.196777,-0.778320,-1.043945,-49.316406,20.629883,22.949219
1018,-0.268066,-0.708008,-1.048828,-44.006348,20.690918,34.240723
1019,-0.300781,-0.715820,-0.972656,-40.832520,27.404785,39.611816
1020,-0.227051,-0.850586,-0.833984,-46.630859,26.611328,33.691406
1021,-0.169434,-0.975586,-0.892090,-46.386719,23.376465,30.700684
1022,-0.143555,-1.062500,-0.921387,-41.503906,21.728516,32.897949
1023,-0.265625,-1.180664,-0.941406,-36.010742,26.367188,51.452637
1024,-0.343750,-1.236816,-0.915039,-38.818359,31.494141,55.480957
1025,-0.383301,-1.226562,-0.852051,-39.978027,34.301758,53.955078
1026,-0.383301,-0.982910,-0.662109,-27.954102,31.494141,45.593262
1027,-0.372070,-0.864258,-0.563477,-21.057129,29.968262,43.334961
1028,-0.380371,-0.789062,-0.496094,-11.840820,28.015137,40.771484
1029,-0.401367,-0.737305,-0.419434,4.089355,22.521973,37.231445
1030,-0.484375,-0.659180,-0.264160,44.433594,0.427246,34.118652
1031,-0.562988,-0.645020,-0.211914,62.377930,-11.779785,37.231445
1032,-0.715820,-0.718262,-0.062012,74.645996,-29.541016,27.770996
1033,-0.752441,-0.734863,-0.015625,59.875488,-34.301758,13.366699
1034,-0.787598,-0.716797,0.013672,32.104492,-37.780762,-6.164551
1035,-0.606445,-0.518066,-0.184082,-22.277832,-38.757324,-40.344238
1036,-0.475098,-0.436523,-0.280762,-28.747559,-31.677246,-40.954590
1037,-0.387207,-0.386719,-0.291504,-31.250000,-25.207520,-35.339355
1038,-0.329102,-0.398926,-0.313965,-32.409668,-21.850586,-28.503418
1039,0.150391,-0.424805,-0.828125,26.733398,-99.792480,-5.859375
1040,0.017578,-0.638672,-0.843262,67.810059,-170.471191,7.812500
1041,-0.022461,-0.628906,-1.036133,38.696289,-181.701660,13.732910
1042,-0.136719,-0.575195,-0.786621,-17.578125,-132.934570,24.841309
1043,-0.185059,-0.471680,-0.594238,-22.644043,-114.013672,30.395508
1044,-0.243652,-0.403320,-0.494141,-16.906738,-94.116211,34.240723
1045,-0.304688,-0.355469,-0.423828,2.014160,-27.526855,24.414062
1046,-0.343262,-0.357422,-0.334961,13.793945,4.028320,11.352539
1047,-0.359375,-0.350098,-0.192383,22.094727,21.911621,-5.615234
1048,-0.435059,-0.346680,-0.124023,26.428223,17.089844,-37.109375
1049,-0.504883,-0.364746,-0.192871,24.414062,5.737305,-52.490234
1050,-0.562988,-0.406738,-0.289062,22.766113,-8.422852,-70.495605
1051,-0.530273,-0.391602,-0.411621,18.554688,-19.836426,-82.458496
1052,-0.359863,-0.488770,-0.884277,7.202148,-25.329590,-79.467773
1053,-0.227051,-0.593750,-1.420898,40.344238,-28.869629,-63.171387
1054,-0.164062,-0.787109,-1.875977,112.854004,-26.367188,-34.790039
1055,-0.487793,-1.924316,-1.827637,185.302734,19.897461,1.281738
1056,-0.824219,-1.479492,-0.655273,174.682617,9.521484,22.644043
1057,-1.002930,-1.185547,-0.248047,135.437012,-2.075195,28.747559
1058,-0.921875,-0.597656,0.054199,14.709473,-9.460449,-12.023926
1059,-0.719727,-0.332520,-0.082520,-40.649414,-10.925293,-21.362305
1060,-0.592285,-0.427246,-0.588379,-64.514160,17.639160,-10.864258
1061,-0.607910,-0.715332,-0.746582,-58.959961,17.639160,-1.098633
1062,-0.690918,-1.127930,-0.914551,78.063965,33.691406,13.183594
1063,-0.802246,-1.165527,-0.428711,128.295898,70.739746,10.803223
1064,-0.836426,-1.130859,-0.037598,126.220703,93.566895,1.403809
1065,-0.761719,-1.038086,0.115723,95.214844,101.501465,-7.263184
1066,-0.575195,-0.843750,0.183594,19.226074,104.553223,-14.709473
1067,-0.494141,-0.783691,0.213867,-19.836426,101.318359,-14.587402
1068,-0.463867,-0.809082,0.174316,-56.335449,95.825195,-15.380859
1069,-0.474609,-0.962402,0.050781,-111.206055,83.923340,-26.489258
1070,-0.494629,-1.079102,0.004883,-120.117188,74.768066,-36.437988
1071,-0.477539,-1.181641,-0.057129,-128.479004,62.744141,-47.851562
1072,-0.414062,-1.254883,-0.297363,-135.192871,38.452148,-63.171387
1073,-0.371094,-1.217773,-0.394043,-124.267578,23.925781,-63.598633
1074,-0.342773,-1.165039,-0.455566,-98.632812,4.699707,-62.316895
1075,-0.229004,-0.972168,-0.395020,-37.658691,-36.560059,-61.340332
1076,-0.163574,-0.843262,-0.332520,-21.362305,-55.175781,-59.387207
1077,-0.126465,-0.737793,-0.303711,-16.723633,-68.664551,-57.312012
1078,-0.041992,-0.550293,-0.385742,-15.258789,-78.247070,-60.974121
1079,-0.007812,-0.467285,-0.436523,-11.535645,-78.857422,-61.401367
1080,-0.006836,-0.411621,-0.533203,-2.746582,-75.500488,-58.837891
1081,-0.040527,-0.367188,-0.698730,31.921387,-43.579102,-42.785645
1082,-0.019043,-0.262207,-0.689941,42.602539,-26.977539,-23.559570
1083,-0.059570,-0.277832,-0.651855,42.175293,-12.695312,-2.441406
1084,-0.134277,-0.329102,-0.664062,33.691406,0.488281,14.038086
1085,-0.235352,-0.382812,-0.709961,10.253906,25.268555,30.578613
1086,-0.234863,-0.390625,-0.714355,2.258301,32.958984,37.841797
1087,-0.237793,-0.418945,-0.705078,-3.967285,38.085938,44.189453
1088,-0.228027,-0.508789,-0.624512,-10.986328,33.142090,46.264648
1089,-0.218262,-0.559570,-0.599609,-14.465332,21.911621,42.663574
1090,-0.218262,-0.617676,-0.617188,-17.883301,7.873535,36.193848
1091,-0.209473,-0.669434,-0.667969,-20.812988,-5.065918,27.343750
1092,-0.183594,-0.788086,-0.803223,-24.841309,-19.653320,9.277344
1093,-0.166504,-0.848145,-0.878418,-26.489258,-20.690918,2.258301
1094,-0.147461,-0.937988,-1.076172,-23.010254,-11.718750,-5.126953
1095,-0.132324,-0.879883,-1.151367,-18.066406,-1.464844,-0.183105
1096,-0.145020,-0.796875,-1.168945,-17.639160,12.145996,14.648438
1097,-0.240723,-0.570312,-1.141602,-20.874023,38.085938,47.424316
1098,-0.266113,-0.630371,-1.035156,-21.850586,48.828125,59.082031
1099,-0.317383,-0.770996,-0.871094,-28.869629,46.997070,56.701660
1100,-0.329102,-0.947266,-0.869629,-42.846680,39.916992,44.677734
1101,-0.198730,-1.104980,-0.914551,-58.105469,35.278320,41.625977
1102,-0.243164,-1.154297,-0.955566,-59.509277,34.790039,50.964355
1103,-0.337891,-1.208496,-0.961914,-55.053711,33.874512,56.884766
1104,-0.452637,-1.065918,-0.786133,-33.752441,31.799316,57.556152
1105,-0.481445,-0.969238,-0.686523,-19.226074,29.174805,56.396484
1106,-0.508301,-0.888184,-0.604004,-4.028320,27.343750,55.908203
1107,-0.548828,-0.835449,-0.538574,11.169434,25.634766,58.471680
1108,-0.701660,-0.826172,-0.356934,52.368164,21.240234,63.354492
1109,-0.775879,-0.843750,-0.237305,69.946289,12.756348,57.739258
1110,-0.825684,-0.850098,-0.155762,79.711914,4.150391,46.386719
1111,-0.855469,-0.771484,0.050781,52.795410,-11.535645,4.943848
1112,-0.813965,-0.695312,0.094238,18.127441,-23.559570,-18.920898
1113,-0.727539,-0.589844,0.005859,-16.174316,-35.034180,-38.146973
1114,-0.553711,-0.457520,-0.156250,-37.658691,-40.039062,-46.569824
1115,-0.413086,-0.359863,-0.298828,-44.311523,-30.944824,-37.292480
1116,-0.354980,-0.352051,-0.307617,-43.884277,-25.207520,-33.081055
1117,-0.092773,-0.351562,-0.462402,-24.658203,-24.841309,-18.005371
1118,0.206543,-0.402344,-1.076172,43.273926,-85.205078,3.234863
1119,0.151367,-0.542969,-0.970703,80.322266,-122.375488,12.878418
1120,0.091309,-0.561035,-0.958496,33.325195,-108.520508,23.864746
1121,-0.018555,-0.550293,-0.750000,1.464844,-87.646484,19.287109
1122,-0.096191,-0.449219,-0.539551,-13.610840,-78.125000,18.920898
1123,-0.176758,-0.375000,-0.398926,-14.099121,-72.265625,22.033691
1124,-0.297852,-0.332031,-0.355957,1.953125,-33.508301,22.583008
1125,-0.363770,-0.359375,-0.308105,15.075684,-3.784180,16.479492
1126,-0.425781,-0.396973,-0.195312,25.878906,20.263672,3.662109
1127,-0.470215,-0.414062,-0.116211,30.517578,30.517578,-13.916016
1128,-0.532227,-0.425781,-0.071777,23.010254,15.319824,-48.767090
1129,-0.540527,-0.432617,-0.183105,17.333984,-2.380371,-63.171387
1130,-0.489746,-0.432617,-0.366211,15.380859,-19.226074,-71.716309
1131,-0.243164,-0.510254,-0.892090,16.296387,-37.048340,-69.030762
1132,-0.134277,-0.611328,-1.335938,43.823242,-45.104980,-56.518555
1133,-0.088867,-0.804199,-1.731445,101.623535,-37.048340,-35.583496
1134,-0.146484,-1.773438,-2.223633,199.218750,30.151367,-13.488770
1135,-0.866699,-1.337891,-0.298828,168.945312,-11.474609,6.286621
1136,-1.047363,-1.004883,0.001953,98.449707,-42.236328,5.371094
1137,-1.010254,-0.692871,0.060059,16.052246,-46.813965,-8.728027
1138,-0.887207,-0.438965,-0.027344,-46.813965,-36.743164,-12.817383
1139,-0.771973,-0.528809,-0.315430,-69.580078,-6.530762,7.385254
1140,-0.798340,-0.821289,-0.486816,-56.213379,-27.343750,18.127441
1141,-0.814941,-1.163574,-1.140625,-13.244629,-35.705566,20.507812
1142,-0.816895,-1.097656,-0.557617,102.233887,64.636230,0.488281
1143,-0.805664,-1.094727,-0.274902,100.646973,94.360352,-10.009766
1144,-0.730469,-1.033691,-0.103027,83.068848,108.764648,-19.897461
1145,-0.545898,-0.882324,0.119141,16.662598,115.722656,-38.269043
1146,-0.444336,-0.822754,0.142578,-24.108887,113.342285,-43.579102
1147,-0.361816,-0.820312,0.129883,-104.064941,99.487305,-45.471191
1148,-0.360840,-0.889160,0.093750,-133.422852,88.928223,-44.555664
1149,-0.397949,-1.000977,0.024414,-149.597168,74.340820,-45.288086
1150,-0.426270,-1.129883,-0.100586,-153.808594,54.626465,-51.635742
1151,-0.403809,-1.192383,-0.303711,-141.723633,38.024902,-58.532715
1152,-0.290039,-1.123535,-0.452637,-95.214844,14.038086,-51.452637
1153,-0.284180,-1.094727,-0.453125,-69.763184,0.610352,-40.466309
1154,-0.282227,-1.056641,-0.369629,-45.898438,-14.831543,-33.020020
1155,-0.237305,-0.930664,-0.239746,-17.456055,-49.743652,-35.705566
1156,-0.195801,-0.806641,-0.229980,-15.319824,-60.913086,-42.175293
1157,-0.145508,-0.608887,-0.344238,-15.197754,-70.678711,-52.673340
1158,-0.125000,-0.531250,-0.444336,-2.441406,-68.115234,-57.067871
1159,-0.083496,-0.441406,-0.496582,17.272949,-62.927246,-57.250977
1160,-0.030762,-0.366699,-0.522949,37.048340,-56.701660,-49.804688
1161,-0.004883,-0.301758,-0.524902,57.739258,-38.818359,-18.005371
1162,-0.035645,-0.309570,-0.539062,56.274414,-26.245117,-1.159668
1163,-0.136230,-0.346191,-0.626953,43.640137,6.225586,25.390625
1164,-0.175781,-0.346191,-0.656738,35.888672,20.874023,34.545898
1165,-0.229492,-0.335449,-0.710938,31.311035,29.724121,43.518066
1166,-0.279297,-0.362793,-0.744629,32.409668,34.790039,51.696777
1167,-0.337891,-0.516602,-0.630859,17.150879,27.893066,57.067871
1168,-0.338379,-0.573242,-0.596191,-0.305176,14.465332,49.560547
1169,-0.312500,-0.605469,-0.634277,-21.484375,-0.549316,39.184570
1170,-0.234375,-0.689941,-0.825195,-44.250488,-17.578125,25.024414
1171,-0.228027,-0.763184,-0.925781,-44.860840,-18.127441,20.141602
1172,-0.202148,-0.819824,-1.022461,-41.259766,-13.122559,16.174316
1173,-0.146973,-0.931641,-1.165527,-35.339355,10.803223,16.845703
1174,-0.133789,-0.919922,-1.170898,-33.386230,23.681641,22.766113
1175,-0.165039,-0.886230,-1.165039,-31.921387,31.677246,32.470703
1176,-0.229004,-0.854004,-1.226074,-28.991699,40.222168,42.602539
1177,-0.191406,-0.903809,-0.907715,-37.048340,52.551270,40.771484
1178,-0.171875,-1.000000,-0.754395,-47.851562,36.437988,33.935547
1179,-0.126953,-1.076660,-0.893066,-53.100586,21.118164,28.808594
1180,-0.180664,-1.177734,-0.948242,-48.278809,20.202637,46.936035
1181,-0.287598,-1.271973,-0.936523,-48.645020,26.672363,56.213379
1182,-0.370605,-1.286621,-0.862793,-50.292969,32.348633,57.495117
1183,-0.467773,-1.103516,-0.741699,-34.301758,33.691406,50.048828
1184,-0.472656,-0.953613,-0.659180,-21.362305,38.330078,49.377441
1185,-0.479492,-0.837402,-0.568848,-10.192871,41.503906,52.001953
1186,-0.569824,-0.754395,-0.427734,28.503418,34.484863,54.260254
1187,-0.650391,-0.739258,-0.314453,51.635742,23.315430,53.344727
1188,-0.711426,-0.716797,-0.248535,71.411133,11.840820,52.551270
1189,-0.782715,-0.728516,-0.186035,83.374023,4.577637,48.583984
1190,-0.857910,-0.734863,0.032227,66.040039,-6.225586,20.019531
1191,-0.831055,-0.679688,0.096191,34.973145,-16.540527,-4.028320
1192,-0.750977,-0.570801,0.068359,-2.319336,-26.733398,-25.329590
1193,-0.448730,-0.354492,-0.186523,-43.273926,-31.127930,-36.071777
1194,-0.358887,-0.316406,-0.251953,-46.020508,-27.770996,-30.456543
1195,-0.316895,-0.319824,-0.270996,-44.738770,-25.024414,-24.963379
1196,0.082520,-0.357422,-0.441406,-12.573242,-51.879883,-8.728027
1197,0.189941,-0.552246,-1.054199,67.443848,-145.019531,16.479492
1198,0.129883,-0.673828,-1.044922,66.284180,-180.541992,22.216797
1199,0.096680,-0.778809,-1.233398,30.761719,-165.954590,23.376465
1200,-0.054688,-0.574707,-0.692383,-22.033691,-105.712891,27.160645
1201,-0.117676,-0.488281,-0.510254,-17.333984,-88.745117,35.949707
1202,-0.240234,-0.437988,-0.377930,2.197266,-34.484863,27.465820
1203,-0.280273,-0.417480,-0.282715,17.578125,-1.586914,15.930176
1204,-0.328613,-0.407227,-0.146973,32.165527,21.484375,0.305176
1205,-0.377441,-0.385254,-0.017578,41.320801,28.503418,-17.517090
1206,-0.504395,-0.395508,0.102051,34.484863,5.126953,-58.044434
1207,-0.534668,-0.369141,0.023926,23.071289,-18.981934,-75.378418
1208,-0.521973,-0.331543,-0.154297,11.108398,-39.001465,-84.472656
1209,-0.433594,-0.394531,-0.594238,-15.991211,-44.311523,-81.726074
1210,-0.311035,-0.582520,-1.391113,6.347656,-28.259277,-69.946289
1211,-0.239746,-0.786621,-1.988281,86.303711,-19.714355,-47.119141
1212,-0.097656,-1.249512,-2.489258,154.602051,-14.465332,-27.648926
1213,-0.989746,-1.525391,-0.867676,174.011230,-36.193848,36.804199
1214,-1.111816,-1.237793,-0.356445,126.464844,-28.198242,31.311035
1215,-0.975098,-0.887695,-0.125977,59.997559,-7.568359,6.896973
1216,-0.818848,-0.585938,-0.055664,-5.371094,13.793945,-9.521484
1217,-0.731445,-0.495605,-0.134766,-53.161621,52.001953,-10.681152
1218,-0.752441,-0.607422,-0.146973,-43.090820,43.640137,-6.347656
1219,-0.775879,-0.916016,-0.435547,-24.780273,0.000000,10.986328
1220,-0.812500,-1.163574,-0.873047,46.020508,-10.009766,20.019531
1221,-0.871094,-1.122559,-0.272461,119.689941,62.805176,9.826660
1222,-0.810547,-1.070801,-0.110352,105.957031,82.580566,-0.732422
1223,-0.714355,-0.998535,0.008789,84.289551,92.651367,-10.009766
1224,-0.519531,-0.900879,0.129395,14.282227,104.553223,-31.066895
1225,-0.447754,-0.862793,0.178711,-31.433105,106.994629,-38.513184
1226,-0.411621,-0.863770,0.169434,-83.374023,106.201172,-41.076660
1227,-0.419434,-0.913574,0.125977,-131.774902,105.773926,-41.442871
1228,-0.469238,-1.087402,-0.023926,-187.438965,89.233398,-42.968750
1229,-0.491699,-1.158203,-0.176270,-188.354492,70.922852,-44.189453
1230,-0.472168,-1.177246,-0.355469,-169.433594,53.649902,-42.541504
1231,-0.393555,-1.119141,-0.527344,-90.148926,20.629883,-32.836914
1232,-0.358887,-1.082520,-0.460449,-46.630859,3.295898,-30.334473
1233,-0.305664,-1.014160,-0.340820,-16.174316,-13.305664,-30.700684
1234,-0.178711,-0.778320,-0.231934,-4.394531,-43.640137,-32.165527
1235,-0.143555,-0.682617,-0.244629,-7.568359,-51.330566,-35.034180
1236,-0.120605,-0.610352,-0.260254,-10.986328,-56.274414,-39.611816
1237,-0.091309,-0.541016,-0.299316,-11.535645,-60.058594,-45.288086
1238,-0.019531,-0.400879,-0.445801,6.103516,-61.035156,-45.532227
1239,-0.012207,-0.361816,-0.518555,17.089844,-54.931641,-39.062500
1240,-0.052246,-0.316895,-0.653320,31.677246,-27.221680,-20.996094
1241,-0.060547,-0.268555,-0.653320,33.508301,-12.878418,-7.568359
1242,-0.105469,-0.261230,-0.678223,32.714844,-3.417969,9.033203
1243,-0.172852,-0.280762,-0.740234,29.724121,4.150391,23.254395
1244,-0.262695,-0.322266,-0.894043,26.794434,26.000977,47.851562
1245,-0.293945,-0.402344,-0.810547,24.841309,35.705566,55.419922
1246,-0.303711,-0.505371,-0.729492,14.831543,37.719727,57.861328
1247,-0.267090,-0.626953,-0.631836,-13.366699,20.568848,48.583984
1248,-0.251465,-0.667969,-0.658203,-27.099609,7.995605,41.381836
1249,-0.233398,-0.708496,-0.719727,-38.635254,-1.770020,33.020020
1250,-0.219238,-0.759277,-0.821289,-47.729492,-6.347656,24.597168
1251,-0.179688,-0.844238,-1.068848,-47.973633,2.136230,14.099121
1252,-0.158203,-0.896484,-1.151855,-37.841797,12.878418,13.549805
1253,-0.128906,-0.918945,-1.147461,-25.451660,22.766113,16.662598
1254,-0.146484,-0.856934,-1.026367,-17.944336,29.357910,29.968262
1255,-0.166016,-0.854004,-1.041504,-24.108887,39.550781,32.897949
1256,-0.140625,-0.833008,-0.911621,-31.616211,45.898438,29.968262
1257,-0.161621,-0.905762,-0.838867,-45.532227,25.573730,17.395020
1258,-0.163086,-0.912598,-0.905762,-40.466309,17.395020,17.517090
1259,-0.209961,-0.992188,-0.951660,-28.991699,11.840820,27.221680
1260,-0.274414,-1.074219,-0.953125,-20.874023,12.695312,40.100098
1261,-0.440918,-1.220703,-0.860840,-23.376465,20.568848,58.532715
1262,-0.482910,-1.162109,-0.796875,-26.245117,23.681641,56.945801
1263,-0.504395,-1.012695,-0.784668,-25.390625,30.456543,56.152344
1264,-0.484375,-0.793945,-0.618164,-12.817383,49.255371,53.222656
1265,-0.504883,-0.758789,-0.530273,2.624512,49.560547,52.368164
1266,-0.554199,-0.761230,-0.435547,23.254395,42.175293,50.354004
1267,-0.609863,-0.754395,-0.343262,44.677734,28.869629,48.095703
1268,-0.729004,-0.735352,-0.195801,78.308105,1.708984,48.339844
1269,-0.834961,-0.778320,-0.042480,79.040527,-13.671875,37.353516
1270,-0.881348,-0.780273,0.028320,61.584473,-31.616211,16.357422
1271,-0.894043,-0.738770,0.053711,29.174805,-46.142578,-10.620117
1272,-0.618164,-0.461426,-0.170898,-40.222168,-54.687500,-44.372559
1273,-0.509766,-0.386230,-0.270508,-49.987793,-47.424316,-41.076660
1274,-0.424316,-0.326660,-0.331543,-47.485352,-37.902832,-34.240723
1275,-0.115723,-0.324707,-0.488770,-16.296387,-25.024414,-15.319824
1276,0.223145,-0.385254,-1.285645,81.176758,-87.463379,11.718750
1277,0.179688,-0.595215,-0.950684,114.013672,-123.474121,28.625488
1278,0.147949,-0.722168,-1.041992,73.669434,-131.042480,34.973145
1279,-0.035156,-0.624512,-0.667480,-1.037598,-86.547852,26.428223
1280,-0.064453,-0.463379,-0.477051,-7.934570,-76.904297,33.935547
1281,-0.119629,-0.411133,-0.395996,-3.906250,-64.025879,42.785645
1282,-0.249023,-0.413574,-0.304199,12.023926,-16.540527,31.066895
1283,-0.301270,-0.414062,-0.192383,23.559570,4.821777,17.578125
1284,-0.344727,-0.418945,-0.065918,35.400391,13.671875,2.014160
1285,-0.442383,-0.451172,0.077637,45.837402,-1.098633,-31.311035
1286,-0.564453,-0.449707,0.042480,26.550293,-33.569336,-65.551758
1287,-0.587891,-0.395508,-0.065430,4.272461,-48.645020,-77.819824
1288,-0.593750,-0.365234,-0.197266,-24.414062,-58.654785,-81.481934
1289,-0.464355,-0.390137,-0.707520,-88.500977,-65.673828,-78.002930
1290,-0.309082,-0.482910,-1.414062,-74.829102,-63.781738,-73.242188
1291,-0.174316,-0.629883,-2.169922,9.765625,-56.396484,-57.312012
1292,-0.096191,-0.952148,-2.702148,96.069336,-33.447266,-37.475586
1293,-0.270020,-1.607910,-2.680664,153.686523,41.137695,13.000488
1294,-0.987793,-1.204590,-0.462891,140.319824,22.277832,23.315430
1295,-0.985840,-0.913574,-0.191895,104.553223,22.644043,10.131836
1296,-0.763672,-0.473633,0.037598,1.342773,32.897949,-16.174316
1297,-0.691406,-0.458496,-0.067871,-30.944824,35.705566,-16.601562
1298,-0.676758,-0.540527,-0.206543,-41.809082,39.367676,-14.343262
1299,-0.675781,-1.199707,-0.787109,-21.423340,-28.991699,23.498535
1300,-0.776367,-1.405273,-1.198730,72.265625,-19.714355,28.625488
1301,-0.813965,-1.355957,-0.726074,119.873047,34.240723,20.629883
1302,-0.722656,-1.251465,-0.168945,81.665039,100.402832,-6.225586
1303,-0.602539,-1.108887,-0.007812,49.194336,107.360840,-16.479492
1304,-0.490723,-0.961426,0.095215,11.962891,105.346680,-23.559570
1305,-0.353027,-0.808105,0.119629,-63.171387,92.529297,-35.339355
1306,-0.322754,-0.784668,0.065918,-92.529297,85.144043,-40.893555
1307,-0.322266,-0.805176,0.049316,-109.558105,76.904297,-43.701172
1308,-0.343262,-0.873535,-0.006836,-117.736816,64.208984,-43.640137
1309,-0.402344,-1.092285,-0.175781,-108.276367,32.043457,-46.386719
1310,-0.397461,-1.138672,-0.266602,-99.914551,15.563965,-47.241211
1311,-0.403320,-1.154297,-0.308594,-90.332031,0.610352,-48.278809
1312,-0.380371,-1.061523,-0.343750,-62.133789,-25.817871,-48.034668
1313,-0.339355,-0.968262,-0.342773,-43.579102,-35.217285,-46.020508
1314,-0.267090,-0.861328,-0.334961,-26.367188,-41.137695,-42.358398
1315,-0.207031,-0.765137,-0.310059,-15.502930,-44.677734,-39.978027
1316,-0.134277,-0.620117,-0.319824,-8.178711,-47.546387,-41.564941
1317,-0.122559,-0.573242,-0.396484,-2.319336,-46.508789,-45.288086
1318,-0.093262,-0.480469,-0.459473,10.925293,-42.358398,-47.058105
1319,-0.028809,-0.331543,-0.528320,42.968750,-32.104492,-30.700684
1320,-0.030762,-0.312988,-0.542969,52.185059,-23.681641,-14.587402
1321,-0.059570,-0.325684,-0.547852,54.443359,-13.610840,2.075195
1322,-0.146484,-0.395020,-0.585449,46.508789,7.263184,23.315430
1323,-0.205566,-0.409668,-0.575684,37.963867,10.253906,27.832031
1324,-0.243164,-0.420410,-0.672852,31.799316,6.469727,29.785156
1325,-0.262695,-0.474121,-0.831543,32.043457,11.230469,36.804199
1326,-0.255859,-0.505859,-0.776367,23.742676,16.784668,40.954590
1327,-0.252441,-0.553223,-0.726074,6.835938,16.235352,43.090820
1328,-0.250977,-0.598633,-0.715332,-12.573242,10.437012,41.015625
1329,-0.254395,-0.656738,-0.749023,-29.907227,2.075195,35.644531
1330,-0.224609,-0.782715,-0.914551,-56.335449,-7.385254,17.944336
1331,-0.203125,-0.850098,-1.027832,-60.729980,-4.150391,12.390137
1332,-0.180176,-0.926270,-1.125488,-61.523438,5.126953,9.521484
1333,-0.148438,-0.968262,-1.150879,-58.349609,15.991211,9.765625
1334,-0.123535,-0.914062,-1.048828,-46.264648,25.756836,23.193359
1335,-0.150879,-0.799316,-1.024414,-41.259766,24.719238,32.653809
1336,-0.191406,-0.798828,-1.009766,-38.146973,31.005859,40.039062
1337,-0.187012,-0.846680,-0.893066,-37.475586,35.583496,38.269043
1338,-0.236816,-1.082031,-0.846191,-54.199219,18.920898,27.343750
1339,-0.220703,-1.145020,-0.917969,-54.748535,15.625000,22.949219
1340,-0.324707,-1.221191,-0.939453,-48.583984,13.732910,36.071777
1341,-0.399414,-1.213379,-0.897949,-45.532227,14.282227,40.710449
1342,-0.441895,-1.133301,-0.834473,-44.372559,18.005371,44.311523
1343,-0.458496,-1.035645,-0.745117,-38.269043,24.169922,43.640137
1344,-0.448242,-0.790039,-0.512207,-22.216797,31.921387,39.306641
1345,-0.467285,-0.715332,-0.436035,-11.657715,28.625488,39.367676
1346,-0.509766,-0.684082,-0.372559,4.516602,20.202637,39.611816
1347,-0.578125,-0.671387,-0.313965,23.376465,8.666992,39.733887
1348,-0.704590,-0.665527,-0.208984,54.748535,-10.375977,39.550781
1349,-0.749512,-0.679199,-0.125977,60.180664,-13.732910,37.048340
1350,-0.793945,-0.676270,0.045898,28.625488,-21.911621,11.291504
1351,-0.763672,-0.610840,0.041992,-2.075195,-26.489258,-9.948730
1352,-0.682617,-0.496582,-0.054688,-28.930664,-29.785156,-24.597168
1353,-0.484375,-0.410645,-0.304688,-37.475586,-19.287109,-24.963379
1354,-0.421387,-0.432617,-0.333496,-30.273438,-11.108398,-21.911621
1355,-0.339355,-0.430664,-0.318359,-23.681641,-8.483887,-19.714355
1356,0.197266,-0.388184,-0.829102,33.386230,-62.500000,1.403809
1357,0.087891,-0.651855,-0.963379,109.497070,-141.052246,19.531250
1358,0.165527,-0.666504,-1.218750,80.139160,-158.752441,23.803711
1359,0.076172,-0.747559,-1.294434,41.015625,-128.784180,27.954102
1360,-0.090820,-0.518555,-0.574707,0.793457,-74.768066,25.268555
1361,-0.147461,-0.418945,-0.420898,5.249023,-64.270020,28.930664
1362,-0.252441,-0.387695,-0.341309,20.690918,-12.512207,20.263672
1363,-0.304688,-0.376953,-0.260742,29.296875,16.479492,7.812500
1364,-0.381348,-0.357422,-0.050781,36.437988,33.569336,-26.672363
1365,-0.418945,-0.363281,-0.016113,32.958984,23.742676,-44.982910
1366,-0.454590,-0.369629,-0.054199,23.681641,6.774902,-60.791016
1367,-0.447266,-0.412109,-0.308105,4.150391,-29.357910,-75.317383
1368,-0.357422,-0.458008,-0.494141,-5.554199,-45.532227,-70.983887
1369,-0.229980,-0.527344,-0.836426,-2.563477,-64.331055,-59.631348
1370,-0.140137,-0.664551,-1.374023,42.175293,-81.726074,-38.757324
1371,-0.165039,-1.569824,-2.355469,160.644531,-30.761719,-7.141113
1372,-0.374512,-2.037598,-2.040527,176.940918,28.930664,-25.024414
1373,-0.717773,-1.398926,-0.635742,177.062988,13.854980,0.183105
1374,-1.218262,-0.897461,0.076172,90.393066,-44.250488,16.845703
1375,-1.094727,-0.590332,0.121582,16.906738,-50.537109,-3.967285
1376,-0.846680,-0.326660,-0.106934,-43.518066,-37.658691,-7.934570
1377,-0.757812,-0.614258,-0.533691,-91.125488,8.239746,6.225586
1378,-0.787109,-0.900391,-0.744141,-90.209961,5.554199,9.704590
1379,-0.769531,-1.074707,-1.018066,-10.009766,9.033203,8.728027
1380,-0.749512,-1.044922,-0.333496,139.709473,70.678711,0.549316
1381,-0.728027,-1.041504,-0.073242,142.761230,91.491699,-7.812500
1382,-0.667969,-1.001465,0.079102,122.253418,102.050781,-16.418457
1383,-0.542480,-0.923828,0.216309,45.654297,104.248047,-29.541016
1384,-0.483398,-0.892090,0.250000,0.976562,99.609375,-33.508301
1385,-0.457520,-0.894043,0.262207,-46.386719,92.224121,-33.752441
1386,-0.447754,-0.946777,0.235352,-89.416504,81.359863,-32.836914
1387,-0.461914,-1.143555,0.093750,-146.118164,49.499512,-43.029785
1388,-0.444336,-1.185547,-0.031738,-157.836914,30.517578,-52.368164
1389,-0.364746,-1.125977,-0.364746,-144.348145,10.437012,-59.204102
1390,-0.338379,-1.059082,-0.401855,-120.788574,2.868652,-56.030273
1391,-0.312012,-0.995605,-0.400879,-89.416504,-9.582520,-54.748535
1392,-0.215332,-0.840820,-0.269531,-31.799316,-44.189453,-46.508789
1393,-0.170898,-0.791016,-0.221680,-19.226074,-60.058594,-45.043945
1394,-0.129883,-0.713867,-0.245605,-16.296387,-71.166992,-47.424316
1395,-0.034180,-0.553711,-0.436035,-6.042480,-76.965332,-54.016113
1396,-0.019531,-0.498535,-0.478027,-2.746582,-73.303223,-54.443359
1397,-0.025879,-0.447266,-0.536133,-2.380371,-67.932129,-52.673340
1398,-0.052734,-0.407227,-0.602539,-3.356934,-61.096191,-48.767090
1399,-0.128418,-0.334473,-0.706055,0.000000,-41.625977,-33.813477
1400,-0.164551,-0.302734,-0.706055,0.549316,-30.334473,-20.935059
1401,-0.212891,-0.303711,-0.717773,-1.708984,-17.211914,-6.469727
1402,-0.306641,-0.339355,-0.747559,0.549316,8.117676,20.874023
1403,-0.325684,-0.382812,-0.711914,3.601074,20.690918,35.644531
1404,-0.341309,-0.443848,-0.672852,2.441406,32.470703,46.936035
1405,-0.353027,-0.512207,-0.643066,-1.708984,39.916992,52.795410
1406,-0.358398,-0.580566,-0.610352,-4.211426,39.550781,52.429199
1407,-0.354980,-0.713867,-0.583008,-7.202148,15.075684,40.405273
1408,-0.348633,-0.789551,-0.610352,-12.268066,-0.793457,29.907227
1409,-0.313477,-0.844238,-0.707031,-20.690918,-12.817383,19.165039
1410,-0.257812,-0.933105,-0.992188,-29.418945,-14.160156,8.728027
1411,-0.233398,-0.967773,-1.102539,-29.052734,-2.990723,8.544922
1412,-0.200195,-0.931152,-1.135254,-28.198242,10.742188,12.329102
1413,-0.188965,-0.712402,-1.058105,-29.296875,30.029297,31.799316
1414,-0.230469,-0.639648,-1.063477,-29.724121,40.100098,41.809082
1415,-0.227539,-0.689453,-1.009766,-30.883789,52.062988,42.663574
1416,-0.166992,-0.895508,-0.794922,-40.832520,47.119141,30.639648
1417,-0.131836,-1.000488,-0.825195,-40.100098,34.240723,22.583008
1418,-0.124512,-1.048828,-0.818848,-34.851074,20.263672,21.850586
1419,-0.243164,-1.187500,-0.907715,-32.104492,12.023926,36.926270
1420,-0.305176,-1.232422,-0.880859,-32.226562,16.906738,40.344238
1421,-0.331055,-1.175781,-0.784180,-31.311035,20.690918,38.085938
1422,-0.340332,-1.019531,-0.693848,-26.184082,21.606445,36.132812
1423,-0.390625,-0.768066,-0.576660,-14.587402,30.517578,46.203613
1424,-0.442871,-0.736328,-0.541992,-2.319336,34.118652,53.527832
1425,-0.510742,-0.725098,-0.498535,19.104004,33.935547,58.959961
1426,-0.582031,-0.711426,-0.435547,70.495605,23.376465,67.138672
1427,-0.747070,-0.750000,-0.228027,87.524414,15.136719,64.941406
1428,-0.841309,-0.791992,-0.117676,91.186523,6.286621,54.443359
1429,-0.908203,-0.811035,-0.026367,78.918457,-6.164551,31.005859
1430,-0.814453,-0.657227,-0.002930,16.113281,-30.029297,-26.245117
1431,-0.573242,-0.500000,-0.153320,-15.991211,-35.827637,-41.687012
1432,-0.459961,-0.406250,-0.254883,-30.395508,-36.987305,-39.550781
1433,-0.224121,-0.403809,-0.443359,-17.517090,-35.644531,-21.728516
1434,0.074219,-0.468750,-0.907227,24.353027,-90.820312,-2.136230
1435,0.020996,-0.641113,-0.982422,45.959473,-150.512695,22.705078
1436,-0.069824,-0.720215,-1.005859,9.338379,-130.065918,26.733398
1437,-0.128906,-0.686523,-0.820312,-30.578613,-95.642090,22.888184
1438,-0.212402,-0.431152,-0.425781,-47.790527,-65.185547,30.822754
1439,-0.267578,-0.380371,-0.397461,-38.146973,-47.790527,29.052734
1440,-0.312500,-0.352539,-0.369141,-21.118164,-21.789551,21.667480
1441,-0.337402,-0.303223,-0.185547,18.493652,26.672363,-1.403809
1442,-0.339844,-0.288574,-0.055664,34.973145,34.790039,-14.160156
1443,-0.346191,-0.285156,0.007812,43.823242,30.334473,-27.282715
1444,-0.383301,-0.290527,-0.010742,40.588379,5.615234,-51.147461
1445,-0.416992,-0.335449,-0.125000,33.203125,-10.192871,-60.852051
1446,-0.407715,-0.364746,-0.265625,26.611328,-23.437500,-69.335938
1447,-0.369141,-0.407227,-0.418457,15.563965,-29.235840,-73.364258
1448,-0.225098,-0.555664,-0.969238,2.807617,-37.109375,-65.856934
1449,-0.154785,-0.690430,-1.530762,53.833008,-46.203613,-46.264648
1450,-0.099609,-1.680664,-2.401367,181.518555,-31.799316,-3.906250
1451,-0.479492,-2.001465,-1.864258,209.106445,4.638672,-1.953125
1452,-0.963867,-1.546387,-0.454102,210.571289,-12.207031,16.845703
1453,-1.112305,-1.198730,0.004395,150.695801,-32.165527,18.493652
1454,-1.093262,-0.860352,0.140137,71.166992,-38.452148,6.958008
1455,-0.931152,-0.474121,-0.023438,-47.424316,-12.145996,-0.305176
1456,-0.876953,-0.515625,-0.148438,-68.420410,9.948730,3.417969
1457,-0.869141,-0.741699,-0.282227,-78.552246,10.559082,9.033203
1458,-0.801270,-1.070312,-0.854492,13.427734,29.296875,8.789062
1459,-0.795410,-1.063477,-0.575195,69.152832,68.359375,2.136230
1460,-0.781250,-1.086914,-0.297363,90.087891,94.848633,-7.568359
1461,-0.728027,-1.064453,-0.121094,83.312988,106.445312,-20.080566
1462,-0.553711,-0.977051,0.068359,24.414062,109.680176,-37.292480
1463,-0.494141,-0.969727,0.104980,-18.798828,107.238770,-42.724609
1464,-0.458008,-0.964844,0.137207,-67.810059,102.294922,-46.752930
1465,-0.416504,-1.014648,0.085938,-152.954102,78.491211,-46.203613
1466,-0.420898,-1.052246,0.002930,-174.682617,59.020996,-46.325684
1467,-0.423828,-1.092773,-0.308105,-163.391113,20.141602,-47.851562
1468,-0.411621,-1.088867,-0.451660,-138.610840,11.413574,-48.522949
1469,-0.376465,-1.036621,-0.544922,-104.675293,7.812500,-45.654297
1470,-0.296387,-0.976074,-0.421875,-37.414551,-4.821777,-40.893555
1471,-0.235840,-0.910645,-0.293945,-19.836426,-17.639160,-41.076660
1472,-0.172363,-0.810547,-0.236328,-15.441895,-32.775879,-41.748047
1473,-0.117676,-0.590332,-0.299316,-21.118164,-49.865723,-38.269043
1474,-0.112793,-0.527832,-0.350098,-19.897461,-49.560547,-36.376953
1475,-0.113281,-0.471191,-0.452637,-7.995605,-43.701172,-37.719727
1476,-0.065430,-0.376953,-0.490234,14.099121,-36.804199,-36.376953
1477,-0.000977,-0.275879,-0.465820,50.170898,-24.291992,-11.901855
1478,-0.015625,-0.293457,-0.475586,54.809570,-15.136719,4.455566
1479,-0.051758,-0.324219,-0.470215,52.307129,-3.723145,17.761230
1480,-0.152344,-0.376953,-0.520508,31.005859,18.859863,32.226562
1481,-0.198242,-0.394531,-0.547852,22.460938,26.611328,36.682129
1482,-0.239746,-0.410156,-0.589355,18.371582,31.005859,40.405273
1483,-0.296387,-0.470215,-0.676270,20.080566,28.869629,47.424316
1484,-0.310059,-0.551270,-0.656250,22.033691,20.568848,45.837402
1485,-0.281250,-0.617188,-0.623047,15.502930,8.178711,39.733887
1486,-0.244141,-0.672852,-0.657227,-0.244141,-2.685547,32.470703
1487,-0.219727,-0.797363,-0.890625,-34.484863,-12.756348,15.380859
1488,-0.192871,-0.841309,-1.066406,-41.687012,-10.192871,8.789062
1489,-0.176758,-0.914551,-1.228516,-39.978027,-0.976562,5.554199
1490,-0.166992,-0.942871,-1.249023,-31.188965,23.254395,5.554199
1491,-0.205566,-0.836426,-1.230957,-30.761719,27.832031,13.183594
1492,-0.263184,-0.731445,-1.261230,-28.198242,33.569336,27.648926
1493,-0.282227,-0.856934,-0.888672,-28.869629,34.301758,34.790039
1494,-0.238281,-0.966309,-0.888672,-40.405273,21.789551,26.611328
1495,-0.110352,-1.020508,-0.993164,-38.452148,22.094727,28.747559
1496,-0.194824,-1.082031,-0.960449,-46.020508,44.982910,69.396973
1497,-0.326660,-1.154297,-0.912109,-49.865723,59.875488,87.646484
1498,-0.422363,-1.185059,-0.818359,-50.170898,69.763184,94.604492
1499,-0.496582,-1.168457,-0.743164,-40.832520,71.228027,91.369629
1500,-0.579102,-0.997559,-0.607422,-6.225586,67.077637,76.049805
1501,-0.597168,-0.933594,-0.515137,11.718750,58.166504,70.312500
1502,-0.657227,-0.919434,-0.441895,36.193848,42.358398,63.110352
1503,-0.826660,-0.876953,-0.203125,84.289551,-1.220703,49.438477
1504,-0.904297,-0.830566,-0.118164,97.900391,-22.949219,44.250488
1505,-0.985840,-0.820312,-0.021973,99.182129,-36.254883,36.682129
1506,-0.962891,-0.775391,0.073242,81.420898,-42.724609,18.432617
1507,-0.679199,-0.486816,0.093262,0.427246,-36.865234,-23.193359
1508,-0.482422,-0.372559,-0.036621,-33.996582,-25.573730,-30.029297
1509,-0.404297,-0.349121,-0.089844,-45.166016,-17.211914,-26.733398
1510,-0.367676,-0.400879,-0.190430,-46.020508,-9.765625,-25.451660
1511,-0.302734,-0.404297,-0.220703,-46.691895,-10.681152,-24.658203
1512,0.332520,-0.587402,-1.384766,43.823242,-132.202148,4.394531
1513,0.249023,-0.752930,-1.336426,72.265625,-160.461426,13.305664
1514,0.102539,-0.698730,-1.003418,20.141602,-92.834473,11.596680
1515,0.047363,-0.484863,-0.632812,3.967285,-70.983887,18.737793
1516,-0.041504,-0.385742,-0.400391,3.723145,-61.523438,29.724121
1517,-0.142090,-0.348633,-0.300781,5.432129,-51.330566,33.264160
1518,-0.256836,-0.308594,-0.267578,16.662598,-5.126953,18.127441
1519,-0.309082,-0.312988,-0.180664,23.132324,15.808105,3.479004
1520,-0.375000,-0.312500,-0.003418,28.259277,18.432617,-34.606934
1521,-0.407715,-0.321289,0.006348,22.399902,2.319336,-54.016113
1522,-0.440430,-0.326172,-0.046875,11.596680,-17.700195,-71.228027
1523,-0.473145,-0.362793,-0.161133,-0.915527,-35.034180,-83.435059
1524,-0.460449,-0.457520,-0.392090,-29.113770,-61.889648,-80.627441
1525,-0.357422,-0.549316,-0.685547,-33.752441,-75.561523,-64.392090
1526,-0.263672,-0.721191,-1.155762,7.751465,-90.026855,-33.996582
1527,-0.353027,-1.682617,-2.071777,141.479492,-63.903809,6.896973
1528,-0.437012,-2.192871,-2.337402,157.226562,6.103516,-14.648438
1529,-0.608398,-1.475098,-0.931641,163.757324,26.000977,-3.845215
1530,-0.883301,-0.812012,-0.132812,84.472656,-27.770996,9.216309
1531,-0.868164,-0.583984,-0.110840,13.305664,-40.039062,-8.850098
1532,-0.748535,-0.358887,-0.232910,-54.626465,-33.264160,-22.766113
1533,-0.740723,-0.397461,-0.606934,-96.984863,15.991211,-24.536133
1534,-0.725098,-0.627441,-0.654297,-98.144531,29.296875,-16.357422
1535,-0.709961,-1.217773,-1.091309,65.612793,32.165527,14.648438
1536,-0.792969,-1.172363,-0.456055,141.174316,72.448730,15.991211
1537,-0.808105,-1.165039,-0.052246,146.728516,100.402832,7.385254
1538,-0.716797,-1.084473,0.117676,122.619629,110.961914,-0.793457
1539,-0.570312,-0.970703,0.250000,41.259766,107.543945,-10.253906
1540,-0.521484,-0.930176,0.269531,-4.150391,100.036621,-16.235352
1541,-0.467773,-0.914551,0.276855,-46.447754,89.477539,-21.301270
1542,-0.437988,-1.059570,0.195801,-119.567871,65.734863,-38.452148
1543,-0.457520,-1.191895,0.134766,-143.371582,52.673340,-52.856445
1544,-0.443359,-1.245605,0.035645,-160.766602,38.452148,-67.687988
1545,-0.338379,-1.197266,-0.261230,-151.733398,11.535645,-74.340820
1546,-0.322266,-1.143066,-0.312012,-122.985840,-8.239746,-68.847656
1547,-0.312988,-1.071289,-0.323242,-87.585449,-31.921387,-64.453125
1548,-0.282715,-0.965332,-0.285156,-56.945801,-52.917480,-61.157227
1549,-0.239746,-0.863281,-0.259766,-35.583496,-69.458008,-57.128906
1550,-0.183105,-0.680176,-0.292480,-21.545410,-78.674316,-54.931641
1551,-0.164062,-0.607910,-0.308105,-20.080566,-75.927734,-56.274414
1552,-0.104980,-0.480469,-0.379883,-10.803223,-68.786621,-60.546875
1553,-0.068848,-0.409668,-0.456543,0.549316,-66.040039,-58.593750
1554,-0.062012,-0.355469,-0.541992,12.573242,-61.889648,-52.673340
1555,-0.092773,-0.314453,-0.660645,25.207520,-51.208496,-44.677734
1556,-0.127930,-0.196777,-0.683105,43.640137,-26.489258,-12.451172
1557,-0.189453,-0.221680,-0.706543,43.762207,-13.977051,5.859375
1558,-0.263184,-0.226562,-0.750488,36.499023,0.000000,19.104004
1559,-0.326660,-0.258789,-0.786621,28.625488,11.047363,29.479980
1560,-0.354492,-0.310059,-0.821289,21.545410,30.700684,47.424316
1561,-0.337891,-0.444824,-0.747070,12.817383,38.696289,55.664062
1562,-0.328125,-0.521484,-0.687012,0.427246,38.635254,58.837891
1563,-0.313965,-0.592285,-0.651367,-12.268066,30.822754,57.373047
1564,-0.291504,-0.740234,-0.708496,-40.710449,8.605957,42.724609
1565,-0.282227,-0.812988,-0.812500,-50.781250,1.342773,33.081055
1566,-0.231445,-0.977539,-1.103516,-50.354004,6.713867,15.563965
1567,-0.178223,-1.010742,-1.155762,-41.931152,14.038086,10.253906
1568,-0.122070,-0.990723,-1.157715,-32.714844,17.822266,11.718750
1569,-0.120605,-0.881836,-1.216309,-24.353027,19.042969,22.033691
1570,-0.191895,-0.943359,-1.091309,-23.681641,45.410156,40.039062
1571,-0.194336,-1.020020,-0.880859,-37.353516,42.419434,37.475586
1572,-0.177734,-1.074707,-0.904297,-51.879883,30.334473,33.996582
1573,-0.187988,-1.212402,-1.110840,-44.128418,26.550293,49.133301
1574,-0.246094,-1.279785,-1.050781,-38.024902,34.179688,62.316895
1575,-0.331543,-1.268555,-0.934570,-38.269043,39.733887,71.044922
1576,-0.447754,-1.060547,-0.741211,-24.414062,41.870117,71.472168
1577,-0.480469,-0.928223,-0.661133,-12.145996,45.471191,70.678711
1578,-0.519043,-0.843262,-0.581543,2.807617,47.180176,71.716309
1579,-0.591797,-0.810547,-0.473145,24.353027,42.236328,71.716309
1580,-0.748047,-0.783203,-0.287109,70.739746,12.084961,62.744141
1581,-0.847168,-0.787598,-0.214844,93.200684,0.427246,55.603027
1582,-0.900391,-0.796875,-0.102051,102.233887,-6.713867,42.419434
1583,-0.885254,-0.721680,0.131836,59.082031,-21.118164,-2.380371
1584,-0.773438,-0.600098,0.142578,15.136719,-28.137207,-27.099609
1585,-0.624512,-0.444824,0.083008,-24.719238,-36.254883,-42.419434
1586,-0.463867,-0.331055,-0.082031,-48.095703,-37.658691,-43.273926
1587,-0.314453,-0.261230,-0.193848,-57.434082,-24.597168,-29.296875
1588,-0.234863,-0.260254,-0.283203,-52.551270,-20.202637,-23.498535
1589,0.223633,-0.476562,-1.217285,64.086914,-97.656250,11.108398
1590,0.177734,-0.670410,-1.049316,102.050781,-138.061523,24.719238
1591,-0.010742,-0.714355,-0.874512,22.155762,-98.876953,20.263672
1592,-0.047852,-0.487305,-0.545898,4.577637,-84.716797,26.550293
1593,-0.093750,-0.386719,-0.375488,-1.037598,-78.735352,39.794922
1594,-0.203125,-0.400879,-0.315918,0.549316,-63.842773,45.349121
1595,-0.303711,-0.397461,-0.225586,6.225586,-10.375977,22.033691
1596,-0.343262,-0.387207,-0.125000,8.728027,12.817383,3.784180
1597,-0.408691,-0.334473,0.030762,17.761230,22.827148,-33.752441
1598,-0.423340,-0.317871,0.047363,16.723633,12.573242,-47.790527
1599,-0.468262,-0.357910,0.000000,13.061523,-4.150391,-61.462402
1600,-0.432129,-0.377930,-0.205078,5.859375,-49.743652,-80.932617
1601,-0.342285,-0.415039,-0.422852,-2.563477,-70.922852,-78.125000
1602,-0.179688,-0.501465,-0.896484,2.502441,-90.270996,-65.917969
1603,-0.093750,-0.733887,-1.583496,52.490234,-92.468262,-43.334961
1604,-0.296875,-2.233398,-2.683594,135.864258,25.451660,-40.466309
1605,-0.483887,-1.764648,-1.038086,141.479492,52.734375,-39.855957
1606,-0.731934,-1.448730,-0.348633,105.834961,2.868652,-2.746582
1607,-0.852051,-0.738770,-0.176758,5.798340,-10.314941,-23.315430
1608,-0.731445,-0.464355,-0.165039,-46.691895,-1.831055,-43.334961
1609,-0.655273,-0.301270,-0.197754,-80.932617,13.061523,-55.664062
1610,-0.666992,-0.309082,-0.237793,-93.383789,29.113770,-57.678223
1611,-0.633789,-0.465332,-0.336426,-85.510254,18.127441,-34.484863
1612,-0.919922,-1.430176,-1.611816,117.492676,-64.453125,57.250977
1613,-1.085449,-1.450195,-0.917969,207.092285,2.014160,57.373047
1614,-1.135742,-1.443359,-0.405273,200.439453,60.668945,43.212891
1615,-1.017090,-1.321289,-0.092773,162.475586,92.407227,21.362305
1616,-0.679688,-0.959961,0.277832,53.344727,104.370117,-12.451172
1617,-0.553711,-0.844238,0.279785,-11.779785,102.416992,-19.714355
1618,-0.490723,-0.817383,0.232422,-66.284180,98.999023,-23.315430
1619,-0.476074,-0.975098,0.101074,-138.366699,88.684082,-33.691406
1620,-0.495117,-1.082520,0.076660,-157.409668,80.505371,-43.212891
1621,-0.505859,-1.170898,-0.048340,-170.715332,68.420410,-53.283691
1622,-0.385742,-1.080566,-0.385254,-153.015137,44.616699,-49.133301
1623,-0.366211,-1.042480,-0.489746,-119.873047,29.174805,-36.987305
1624,-0.357910,-1.000000,-0.496094,-78.979492,11.230469,-30.029297
1625,-0.263672,-0.863770,-0.272461,-20.812988,-26.733398,-27.709961
1626,-0.223633,-0.788574,-0.179688,-14.648438,-44.128418,-29.235840
1627,-0.198730,-0.716797,-0.163574,-15.441895,-58.959961,-33.691406
1628,-0.157227,-0.551270,-0.222656,-25.939941,-70.434570,-46.447754
1629,-0.126953,-0.483398,-0.277832,-29.846191,-71.838379,-49.865723
1630,-0.112305,-0.431152,-0.366211,-26.916504,-70.373535,-49.682617
1631,-0.134766,-0.437500,-0.559570,-9.460449,-62.133789,-50.659180
1632,-0.044922,-0.303223,-0.585938,45.288086,-37.963867,-38.818359
1633,-0.019043,-0.262207,-0.564453,60.363770,-28.747559,-21.301270
1634,-0.027832,-0.255371,-0.573730,65.185547,-17.517090,1.098633
1635,-0.120117,-0.328613,-0.653320,52.307129,18.859863,39.306641
1636,-0.217285,-0.323730,-0.719238,24.536133,51.879883,65.185547
1637,-0.263184,-0.398926,-0.729492,17.028809,57.250977,66.040039
1638,-0.298828,-0.494141,-0.663574,13.854980,50.964355,60.058594
1639,-0.299805,-0.586426,-0.650391,7.934570,34.423828,48.278809
1640,-0.229492,-0.728516,-0.821289,-4.943848,4.333496,24.230957
1641,-0.225586,-0.826172,-0.923340,-10.498047,-3.234863,12.695312
1642,-0.224609,-0.917480,-1.058594,-15.380859,-5.493164,1.953125
1643,-0.259766,-1.124023,-1.209473,-28.686523,4.150391,-10.314941
1644,-0.296387,-1.105957,-1.189453,-43.701172,8.422852,-7.812500
1645,-0.349121,-0.694824,-1.153809,-61.462402,11.657715,9.155273
1646,-0.336914,-0.640625,-1.108398,-56.396484,23.010254,19.042969
1647,-0.235352,-0.679199,-1.028809,-45.837402,34.240723,20.507812
1648,-0.081543,-0.781738,-0.935547,-29.174805,42.297363,24.353027
1649,0.041504,-1.094727,-0.717285,-34.423828,43.273926,36.071777
1650,-0.065918,-1.142578,-0.817871,-56.152344,49.987793,47.851562
1651,-0.274414,-1.181152,-0.845703,-71.594238,70.495605,63.232422
1652,-0.342773,-1.138184,-0.760254,-55.847168,67.138672,65.795898
1653,-0.414551,-1.064941,-0.692383,-32.531738,60.119629,66.406250
1654,-0.570801,-0.982422,-0.559570,16.906738,45.471191,63.415527
1655,-0.656250,-0.957520,-0.484375,43.212891,34.790039,61.523438
1656,-0.783691,-0.946289,-0.355469,71.411133,18.981934,59.265137
1657,-0.884277,-0.923828,-0.253418,96.679688,0.122070,57.373047
1658,-1.142090,-0.933594,-0.020020,116.699219,-29.724121,39.550781
1659,-1.146484,-0.860352,0.083496,96.435547,-41.076660,15.319824
1660,-0.839355,-0.537598,0.145020,14.892578,-50.720215,-33.813477
1661,-0.607422,-0.386230,0.078613,-30.944824,-48.034668,-47.241211
1662,-0.415527,-0.261719,-0.064453,-56.823730,-42.419434,-46.081543
1663,-0.332520,-0.294922,-0.245605,-73.669434,-25.512695,-34.484863
1664,-0.286133,-0.313477,-0.245117,-74.951172,-19.531250,-33.020020
1665,0.238770,-0.402832,-0.455078,-46.447754,-100.280762,-18.432617
1666,0.154297,-0.702148,-1.229492,41.625977,-211.486816,1.281738
1667,0.108398,-0.609375,-1.318848,28.259277,-172.424316,14.831543
1668,0.025391,-0.428711,-0.854980,4.394531,-137.695312,35.339355
1669,-0.046875,-0.364746,-0.649902,1.098633,-113.708496,54.931641
1670,-0.187988,-0.399414,-0.471680,4.028320,-86.425781,59.020996
1671,-0.252930,-0.370605,-0.362305,2.563477,-16.174316,34.545898
1672,-0.272949,-0.358398,-0.271973,0.732422,17.944336,19.775391
1673,-0.302734,-0.388184,-0.164062,0.122070,36.254883,3.295898
1674,-0.344238,-0.358398,-0.139648,11.047363,19.958496,-36.804199
1675,-0.367676,-0.303711,-0.168457,17.456055,-4.028320,-51.330566
1676,-0.393066,-0.272949,-0.255859,19.714355,-28.747559,-60.668945
1677,-0.456543,-0.358398,-0.556641,31.799316,-46.936035,-70.678711
1678,-0.528320,-0.454590,-0.649902,34.729004,-37.414551,-76.354980
1679,-0.593750,-0.604492,-0.821777,43.762207,-21.911621,-79.284668
1680,-0.553223,-1.314453,-1.425293,128.784180,-3.356934,-50.048828
1681,-0.513184,-1.839844,-1.638672,153.320312,-19.592285,-28.503418
1682,-1.051758,-1.458008,-0.524414,74.035645,-65.429688,33.508301
1683,-0.945312,-1.106445,-0.522949,19.165039,-63.781738,34.118652
1684,-0.884766,-0.940918,-0.678711,-12.268066,-55.603027,42.724609
1685,-0.849609,-0.976074,-0.774414,-27.038574,-32.714844,50.842285
1686,-0.805176,-0.817383,-0.487305,-1.342773,23.620605,39.245605
1687,-0.808105,-0.568848,-0.141113,55.908203,47.546387,30.395508
1688,-0.893555,-0.614258,0.037598,90.637207,62.683105,20.935059
1689,-0.809570,-0.711426,0.104980,109.802246,66.589355,-9.033203
1690,-0.720215,-0.713379,0.082520,102.111816,71.166992,-22.766113
1691,-0.655762,-0.714844,0.068359,66.833496,89.355469,-42.114258
1692,-0.579102,-0.836914,0.022461,48.156738,98.571777,-47.973633
1693,-0.587402,-0.995117,-0.030762,36.132812,113.769531,-56.579590
1694,-0.572266,-1.142578,0.044434,17.028809,132.690430,-70.556641
1695,-0.412109,-1.324707,0.254883,-80.993652,139.221191,-78.552246
1696,-0.300781,-1.303711,0.209961,-136.230469,118.835449,-61.340332
1697,-0.280762,-1.310547,-0.243164,-170.410156,58.471680,-28.442383
1698,-0.304199,-1.277344,-0.399414,-140.686035,34.606934,-34.423828
1699,-0.247070,-1.117188,-0.444336,-97.717285,13.610840,-44.555664
1700,-0.113770,-0.842773,-0.228027,-39.550781,-35.583496,-46.691895
1701,-0.096191,-0.796875,-0.154297,-28.442383,-59.387207,-44.860840
1702,-0.080078,-0.735840,-0.162109,-25.207520,-79.101562,-47.424316
1703,-0.072266,-0.650391,-0.243164,-24.902344,-90.515137,-52.978516
1704,0.008301,-0.481445,-0.444336,-16.113281,-91.125488,-58.349609
1705,0.021484,-0.413574,-0.540527,-6.408691,-81.054688,-52.490234
1706,-0.028809,-0.338867,-0.672852,19.042969,-45.410156,-35.095215
1707,-0.063477,-0.276855,-0.614258,24.963379,-31.677246,-22.583008
1708,-0.115723,-0.246582,-0.596680,23.498535,-23.376465,-7.629395
1709,-0.206055,-0.262207,-0.589844,15.136719,-15.563965,5.249023
1710,-0.324707,-0.292480,-0.720703,-3.845215,4.882812,23.010254
1711,-0.349121,-0.343750,-0.744629,-3.051758,18.920898,34.790039
1712,-0.359375,-0.494629,-0.657227,-8.544922,39.428711,52.368164
1713,-0.344238,-0.574707,-0.618164,-13.427734,41.625977,54.504395
1714,-0.314941,-0.648438,-0.582031,-19.409180,37.292480,52.185059
1715,-0.236328,-0.812500,-0.609863,-34.179688,19.897461,42.236328
1716,-0.207520,-0.911621,-0.693848,-38.818359,12.023926,34.179688
1717,-0.186523,-0.988281,-0.803223,-38.024902,7.324219,25.451660
1718,-0.168457,-1.048828,-1.015625,-31.555176,11.718750,14.709473
1719,-0.182129,-0.999023,-1.097656,-31.799316,19.470215,17.150879
1720,-0.224121,-0.709961,-1.203125,-37.963867,40.771484,37.780762
1721,-0.250977,-0.687012,-1.206543,-36.865234,53.771973,45.104980
1722,-0.286133,-0.777832,-1.009277,-41.137695,55.969238,43.884277
1723,-0.299805,-0.926758,-0.815918,-68.115234,25.329590,19.042969
1724,-0.144531,-1.030273,-0.993164,-63.354492,16.235352,23.681641
1725,-0.148926,-1.144531,-1.002441,-54.443359,15.869141,37.536621
1726,-0.200195,-1.219238,-0.922363,-52.001953,19.592285,49.316406
1727,-0.279785,-1.236816,-0.812988,-54.199219,21.240234,52.673340
1728,-0.358887,-1.062988,-0.610352,-47.790527,17.150879,36.132812
1729,-0.362305,-0.950684,-0.528320,-40.710449,15.747070,26.977539
1730,-0.447266,-0.854492,-0.386719,-16.479492,5.371094,24.169922
1731,-0.482422,-0.832520,-0.351562,5.187988,-4.760742,26.062012
1732,-0.533203,-0.811523,-0.313965,33.996582,-14.770508,32.592773
1733,-0.736816,-0.923828,-0.168945,96.435547,-23.437500,41.076660
1734,-0.824707,-0.951172,-0.042969,104.370117,-23.620605,31.372070
1735,-0.859375,-0.936035,0.024902,93.017578,-23.315430,15.563965
1736,-0.721680,-0.744629,0.088379,37.414551,-23.498535,-31.738281
1737,-0.453613,-0.460449,-0.102051,-1.525879,-32.226562,-49.377441
1738,-0.378418,-0.383789,-0.142578,-6.225586,-37.414551,-44.860840
1739,-0.230957,-0.383789,-0.158691,-10.375977,-50.720215,-35.034180
1740,-0.003906,-0.599121,-0.905762,18.920898,-194.396973,-2.685547
1741,-0.056641,-0.664062,-1.193359,8.789062,-207.214355,8.728027
1742,-0.166504,-0.741211,-1.250488,-30.517578,-172.119141,13.793945
1743,-0.244141,-0.604492,-0.840332,-64.941406,-136.413574,19.470215
1744,-0.309082,-0.391602,-0.428223,-83.312988,-105.712891,34.118652
1745,-0.306641,-0.332031,-0.392578,-78.674316,-80.810547,32.775879
1746,-0.294434,-0.291504,-0.379395,-69.641113,-46.569824,26.855469
1747,-0.271973,-0.242676,-0.211914,-44.799805,17.150879,5.065918
1748,-0.278809,-0.238770,-0.122070,-26.855469,28.198242,-8.544922
1749,-0.310059,-0.226074,-0.066406,-8.789062,23.376465,-23.498535
1750,-0.455078,-0.234375,-0.186035,25.939941,-2.624512,-54.687500
1751,-0.496094,-0.216309,-0.276855,42.602539,-19.592285,-69.885254
1752,-0.505371,-0.207520,-0.412598,59.631348,-37.780762,-79.589844
1753,-0.463867,-0.214355,-0.597168,76.599121,-52.062988,-81.176758
1754,-0.393066,-0.421875,-1.153320,106.872559,-45.837402,-65.917969
1755,-0.388672,-0.721680,-1.527832,142.761230,-15.686035,-47.851562
1756,-0.499512,-1.582520,-1.971680,177.795410,27.526855,-44.006348
1757,-0.491211,-2.138672,-1.943359,177.612305,63.110352,-55.419922
1758,-1.097168,-1.449707,-0.145996,167.724609,-18.737793,33.081055
1759,-1.137695,-1.089844,0.113770,89.599609,-31.738281,24.780273
1760,-0.770020,-0.476074,-0.186523,-59.692383,-31.616211,10.192871
1761,-0.682617,-0.479980,-0.372070,-94.116211,-9.033203,14.099121
1762,-0.701660,-0.699219,-0.602539,-114.440918,12.695312,10.803223
1763,-0.712402,-0.865723,-0.809570,-102.966309,20.263672,6.652832
1764,-0.765625,-0.847656,-0.506836,96.130371,54.748535,9.521484
1765,-0.846191,-0.929199,-0.211914,150.451660,78.247070,4.638672
1766,-0.804199,-0.944336,0.042480,165.771484,100.952148,-15.136719
1767,-0.730469,-0.943848,0.071289,149.230957,107.849121,-20.202637
1768,-0.670410,-0.977539,0.123535,123.840332,114.746094,-24.230957
1769,-0.583984,-1.082520,0.318359,33.996582,124.145508,-35.278320
1770,-0.527832,-1.147949,0.364746,-30.151367,122.131348,-39.916992
1771,-0.491211,-1.216797,0.354492,-93.750000,112.915039,-43.884277
1772,-0.449707,-1.254883,0.304688,-149.780273,96.923828,-47.729492
1773,-0.355469,-1.164551,-0.044922,-205.322266,53.894043,-48.156738
1774,-0.328613,-1.142578,-0.242676,-190.856934,33.569336,-49.499512
1775,-0.283203,-1.037109,-0.341797,-115.661621,-13.183594,-65.551758
1776,-0.212402,-0.895996,-0.330078,-73.242188,-35.705566,-67.260742
1777,-0.131348,-0.772949,-0.246582,-40.649414,-56.518555,-60.058594
1778,-0.070312,-0.649902,-0.191895,-20.202637,-91.308594,-50.354004
1779,-0.076660,-0.602051,-0.239746,-18.981934,-99.609375,-52.978516
1780,-0.058105,-0.539062,-0.318359,-14.831543,-102.844238,-58.227539
1781,-0.001953,-0.408203,-0.474121,4.943848,-90.942383,-54.077148
1782,-0.000977,-0.365723,-0.537598,11.596680,-75.134277,-44.006348
1783,-0.017578,-0.330078,-0.599609,15.380859,-54.748535,-32.165527
1784,-0.100098,-0.240234,-0.689453,17.211914,-12.695312,-4.333496
1785,-0.171875,-0.211914,-0.710449,17.822266,0.793457,10.437012
1786,-0.234863,-0.209473,-0.742188,18.249512,10.192871,25.756836
1787,-0.315430,-0.357422,-0.810059,16.845703,30.395508,48.339844
1788,-0.316406,-0.461426,-0.772461,11.718750,41.809082,54.931641
1789,-0.302734,-0.555664,-0.717285,-3.601074,39.123535,54.748535
1790,-0.291504,-0.742676,-0.606445,-18.005371,25.817871,47.851562
1791,-0.276367,-0.818359,-0.643555,-35.766602,11.779785,39.062500
1792,-0.263184,-0.904785,-0.780762,-49.743652,2.563477,29.174805
1793,-0.233398,-1.050293,-1.066895,-51.513672,5.126953,9.582520
1794,-0.211914,-1.051270,-1.119141,-49.133301,14.526367,7.019043
1795,-0.223633,-1.030273,-1.150879,-49.926758,23.925781,11.901855
1796,-0.243652,-0.820801,-1.188965,-46.936035,50.781250,34.179688
1797,-0.236816,-0.788574,-1.021973,-46.020508,58.654785,39.062500
1798,-0.178711,-0.935547,-0.800781,-49.804688,40.710449,27.832031
1799,-0.148926,-0.972656,-0.846191,-46.264648,26.306152,28.747559
1800,-0.177246,-1.066895,-0.921875,-38.146973,18.676758,37.963867
1801,-0.217773,-1.160156,-0.932129,-33.142090,19.836426,49.316406
1802,-0.361816,-1.241699,-0.798340,-36.743164,27.221680,62.011719
1803,-0.427734,-1.207031,-0.762695,-33.325195,26.977539,59.814453
1804,-0.468262,-1.085449,-0.735840,-21.118164,28.564453,56.335449
1805,-0.525879,-0.867188,-0.594238,7.751465,38.513184,63.781738
1806,-0.599121,-0.840820,-0.480957,29.663086,38.146973,68.969727
1807,-0.666016,-0.832031,-0.358887,54.626465,30.395508,69.274902
1808,-0.734863,-0.803223,-0.282227,80.627441,20.141602,67.565918
1809,-0.853516,-0.765137,-0.061035,115.051270,2.807617,45.654297
1810,-0.854004,-0.723633,0.039551,109.008789,-4.943848,28.137207
1811,-0.833984,-0.663574,0.145020,86.669922,-13.916016,6.591797
1812,-0.597656,-0.455078,0.100098,15.686035,-31.799316,-36.437988
1813,-0.407227,-0.355469,-0.061035,-8.850098,-31.982422,-41.625977
1814,-0.308105,-0.325195,-0.163574,-28.076172,-28.259277,-32.531738
1815,-0.284180,-0.364258,-0.158691,-35.827637,-31.311035,-25.817871
1816,-0.195801,-0.449707,-0.203125,-39.978027,-50.537109,-18.981934
1817,0.016113,-0.545898,-0.617676,-14.831543,-116.760254,-3.417969
1818,-0.020020,-0.708984,-1.034668,19.836426,-178.405762,19.592285
1819,-0.097168,-0.742188,-1.026367,-20.629883,-149.719238,24.291992
1820,-0.155762,-0.606445,-0.714355,-49.560547,-123.291016,28.930664
1821,-0.253906,-0.424805,-0.399902,-65.856934,-97.290039,35.766602
1822,-0.274414,-0.395020,-0.417969,-61.645508,-74.768066,26.428223
1823,-0.283203,-0.355957,-0.404785,-50.964355,-42.907715,14.160156
1824,-0.309082,-0.331543,-0.230957,-20.568848,7.507324,-15.258789
1825,-0.322754,-0.283691,-0.149902,-5.737305,10.559082,-29.663086
1826,-0.382812,-0.273438,-0.157227,7.812500,4.150391,-41.259766
1827,-0.455566,-0.293945,-0.213379,21.423340,-6.958008,-53.955078
1828,-0.473145,-0.315430,-0.430176,49.682617,-35.827637,-77.697754
1829,-0.424316,-0.370117,-0.626953,60.546875,-41.503906,-77.209473
