order,ax,ay,az,gx,gy,gz
0,0.046387,-0.177246,0.864258,-6.103516,3.356934,0.610352
1,0.032227,-0.133301,0.966309,5.859375,4.760742,4.455566
2,0.021973,-0.148926,0.933594,11.474609,-1.159668,12.451172
3,-0.018555,-0.125488,1.034180,13.916016,1.037598,12.756348
4,-0.020508,-0.115234,1.045410,8.728027,1.464844,9.765625
5,0.006348,-0.094238,1.063477,-2.685547,-5.004883,9.155273
6,0.023926,-0.115234,1.016602,-6.652832,-4.516602,7.385254
7,0.017578,-0.123047,1.004883,-8.850098,-2.380371,7.080078
8,0.012695,-0.138672,0.965332,-7.141113,-2.380371,7.080078
9,0.029297,-0.136230,0.958984,4.516602,-2.258301,10.253906
10,0.021484,-0.142578,0.956543,10.253906,-2.197266,11.962891
11,0.008789,-0.146973,0.964844,15.380859,-1.831055,11.596680
12,0.004883,-0.141113,1.001953,17.700195,-1.831055,10.314941
13,0.003906,-0.098633,1.073730,7.934570,-1.525879,6.225586
14,0.001953,-0.097656,1.069336,-1.464844,-0.854492,4.089355
15,0.005371,-0.098633,1.027832,-10.314941,0.122070,2.380371
16,0.019043,-0.115234,0.953125,-7.995605,-1.770020,7.202148
17,0.012695,-0.129395,0.943848,-0.366211,-0.732422,13.183594
18,-0.009766,-0.154785,0.950684,13.793945,-1.098633,17.028809
19,0.002930,-0.138672,0.978516,18.188477,-0.732422,14.587402
20,0.020020,-0.120117,1.005371,19.897461,-0.305176,11.291504
21,0.028320,-0.084473,1.052246,12.023926,0.000000,6.347656
22,0.020996,-0.089844,1.038574,6.774902,-0.244141,5.432129
23,0.011719,-0.098145,1.027832,3.540039,-0.305176,4.455566
24,0.018066,-0.103027,0.991699,2.746582,-0.427246,2.746582
25,0.022461,-0.108398,0.977539,5.432129,-0.427246,3.540039
26,0.020020,-0.106934,0.974121,12.695312,-0.671387,8.361816
27,0.013672,-0.098633,0.998535,14.282227,-0.732422,10.742188
28,-0.000977,-0.096191,1.013184,14.343262,-0.793457,11.718750
29,-0.008301,-0.093750,1.040527,11.901855,-0.854492,11.352539
30,-0.003418,-0.077148,1.057129,-2.075195,-0.549316,5.554199
31,0.006836,-0.090332,1.023926,-6.469727,-0.244141,2.624512
32,0.017578,-0.086914,0.994629,-7.263184,-0.061035,0.427246
33,0.030273,-0.080078,0.986328,-5.065918,-0.183105,-0.061035
34,0.016113,-0.098633,0.968750,2.136230,-0.427246,1.220703
35,0.014648,-0.095215,0.975098,5.981445,-0.854492,2.197266
36,0.011719,-0.095215,0.987793,9.155273,-1.098633,3.540039
37,0.000000,-0.091797,1.020996,11.108398,-1.098633,5.126953
38,0.000000,-0.088379,1.037598,9.338379,-0.732422,4.394531
39,0.000000,-0.082031,1.033691,4.150391,-0.122070,2.563477
40,0.006348,-0.091797,0.999023,-1.281738,-0.244141,0.305176
41,0.011719,-0.084961,1.008301,-0.183105,-0.610352,-0.122070
42,0.016113,-0.075684,1.016602,0.732422,-0.915527,0.793457
43,0.012207,-0.077637,1.017578,-3.112793,-0.366211,0.793457
44,0.017090,-0.083984,0.997559,-3.173828,-0.061035,0.610352
45,0.016113,-0.089355,0.979980,-1.281738,-0.488281,1.037598
46,0.013672,-0.093750,0.977539,5.249023,-0.488281,2.319336
47,0.020020,-0.086914,0.987793,9.704590,-0.671387,3.417969
48,0.006348,-0.075195,1.022461,10.131836,-0.793457,4.394531
49,0.003906,-0.075684,1.017090,7.751465,-0.793457,3.417969
50,0.006836,-0.080078,1.005371,7.385254,-0.244141,1.831055
51,0.006836,-0.057129,1.041992,4.150391,-0.671387,0.244141
52,0.008301,-0.055664,1.041016,-1.037598,-0.610352,0.000000
53,0.011719,-0.061035,1.026855,-5.310059,-0.366211,0.122070
54,0.013672,-0.075684,0.999512,-6.103516,-0.183105,0.122070
55,0.013184,-0.094727,0.964355,0.793457,-0.183105,0.671387
56,0.026855,-0.086426,0.964355,6.896973,-0.183105,1.831055
57,0.033203,-0.077637,0.977051,12.573242,-0.610352,4.577637
58,-0.013184,-0.062988,1.053711,11.657715,-1.037598,3.784180
59,-0.008789,-0.043945,1.072754,4.638672,-0.854492,0.915527
60,0.005859,-0.037109,1.071289,-3.967285,-0.732422,-0.488281
61,0.012695,-0.073730,0.985352,-10.803223,0.000000,-0.915527
62,0.012695,-0.088867,0.953125,-5.737305,-0.183105,-0.610352
63,0.017090,-0.091797,0.944336,1.953125,-0.305176,0.061035
64,0.008789,-0.090820,0.961914,9.094238,-0.427246,0.549316
65,0.015625,-0.060547,1.015625,13.183594,-0.793457,0.915527
66,0.009277,-0.059570,1.023926,11.901855,-1.037598,1.159668
67,0.010254,-0.058594,1.014648,10.559082,-0.915527,1.159668
68,0.015137,-0.046387,1.025879,7.934570,-0.854492,1.708984
69,0.016602,-0.047852,1.026367,5.310059,-0.610352,2.319336
70,0.007812,-0.051270,1.023438,3.234863,-0.488281,2.197266
71,0.010742,-0.050293,1.020996,1.647949,-0.427246,1.953125
72,0.009766,-0.054688,1.004883,0.976562,-0.427246,2.075195
73,0.012695,-0.063965,0.976562,6.164551,-0.732422,2.319336
74,0.016113,-0.063965,0.978027,10.314941,-0.915527,2.990723
75,0.007812,-0.064453,0.981445,14.099121,-1.281738,3.173828
76,0.015137,-0.046387,0.991699,20.446777,-1.586914,2.929688
77,0.017578,-0.039062,0.995605,22.583008,-1.770020,3.845215
78,0.011230,-0.038086,1.012207,24.108887,-2.197266,4.577637
79,0.007324,-0.025391,1.041992,21.911621,-2.624512,4.211426
80,0.005859,-0.008789,1.065918,20.629883,-3.784180,4.455566
81,0.020996,-0.005371,1.024414,16.601562,-3.295898,5.065918
82,0.010742,-0.018066,1.015137,13.793945,-2.868652,5.981445
83,0.011719,-0.011230,1.011719,12.023926,-2.746582,5.615234
84,0.009766,-0.009766,1.014160,11.230469,-2.136230,4.882812
85,0.012695,-0.003906,1.011719,9.887695,-1.831055,3.906250
86,0.013184,-0.005859,1.011719,6.225586,-1.220703,2.502441
87,0.014160,-0.006348,1.010254,5.554199,-1.037598,1.953125
88,0.014160,-0.009277,1.007324,5.004883,-0.671387,1.464844
89,0.018066,-0.003418,1.008301,6.103516,-0.244141,1.647949
90,0.014648,0.003418,1.016602,5.554199,-0.183105,1.892090
91,0.009766,0.011230,1.023438,2.319336,-0.427246,1.159668
92,0.012207,0.005371,1.017578,-1.098633,-0.610352,-0.183105
93,0.016113,-0.005859,1.005371,-0.366211,-0.366211,-0.061035
94,0.014648,-0.001953,1.007812,0.488281,-0.366211,0.000000
95,0.015137,0.000000,1.010742,0.549316,-0.305176,-0.061035
96,0.014648,-0.000488,1.009277,1.159668,-0.305176,-0.061035
97,0.013184,-0.000977,1.007812,1.525879,-0.305176,-0.122070
98,0.013672,0.000000,1.010742,1.708984,-0.305176,-0.122070
99,0.012695,0.005859,1.019531,0.366211,-0.366211,-0.305176
100,0.014160,-0.004883,1.009766,-3.051758,-0.610352,-0.671387
101,0.013672,-0.004883,1.007812,-2.502441,-0.549316,-0.854492
102,0.016113,-0.001465,1.006836,-1.464844,-0.427246,-0.976562
103,0.020020,0.003906,1.006348,0.366211,-0.122070,-0.610352
104,0.014648,-0.002441,1.003418,1.159668,-0.061035,-0.305176
105,0.014648,-0.005859,1.001465,2.807617,-0.061035,-0.183105
106,0.013672,0.000000,1.010742,4.089355,-0.061035,-0.061035
107,0.015625,0.007812,1.020020,0.793457,-0.488281,0.061035
108,0.014648,0.008301,1.019043,-1.586914,-0.549316,0.061035
109,0.016113,0.002441,1.008301,-2.807617,-0.610352,0.061035
110,0.015137,-0.002930,1.003418,0.854492,-0.427246,0.122070
111,0.015137,0.002441,1.010254,1.342773,-0.366211,0.122070
112,0.015137,0.004395,1.013184,0.793457,-0.366211,0.183105
113,0.014648,0.000000,1.010254,-0.366211,-0.305176,0.122070
114,0.015137,0.000977,1.007324,0.000000,-0.305176,0.183105
115,0.015625,0.000488,1.011719,-0.061035,-0.305176,0.183105
116,0.014648,0.004395,1.013672,-0.793457,-0.366211,0.183105
117,0.015137,-0.002441,1.005859,-0.915527,-0.427246,0.122070
118,0.014160,0.002930,1.010742,-0.549316,-0.549316,0.183105
119,0.014648,0.001465,1.010254,-0.854492,-0.488281,0.183105
120,0.016113,0.000488,1.007812,0.122070,-0.366211,0.244141
121,0.015137,0.001953,1.008301,0.366211,-0.305176,0.305176
122,0.015625,0.005371,1.011719,0.366211,-0.305176,0.366211
123,0.014160,-0.000977,1.009766,-2.136230,-0.427246,0.061035
124,0.015625,-0.001953,1.009277,-1.708984,-0.427246,0.061035
125,0.014648,0.000000,1.012207,-1.831055,-0.427246,0.000000
126,0.014648,-0.003906,1.005371,-0.915527,-0.488281,0.183105
127,0.014160,-0.000977,1.009277,-0.122070,-0.366211,0.122070
128,0.017090,-0.001465,1.008789,0.366211,-0.366211,0.122070
129,0.014648,0.002441,1.012207,-0.427246,-0.366211,0.122070
130,0.015137,-0.001465,1.007812,-0.244141,-0.427246,0.183105
131,0.014160,-0.001465,1.009277,0.183105,-0.305176,0.122070
132,0.013672,0.002441,1.016113,-2.807617,-0.488281,0.000000
133,0.014648,-0.004883,1.007812,-2.807617,-0.610352,0.061035
134,0.017090,-0.003906,1.004395,-1.708984,-0.549316,0.061035
135,0.015137,-0.000977,1.008789,0.183105,-0.366211,0.061035
136,0.011719,0.000000,1.011230,0.061035,-0.366211,0.122070
137,0.014648,0.000000,1.012207,-0.366211,-0.427246,0.122070
138,0.016602,-0.001953,1.006348,0.793457,-0.305176,0.244141
139,0.014648,0.001465,1.015137,0.427246,-0.305176,0.183105
140,0.016113,0.001953,1.016113,-1.464844,-0.427246,0.183105
141,0.014160,-0.002441,1.011719,-2.136230,-0.549316,0.183105
142,0.015625,-0.004395,1.004883,-0.488281,-0.427246,0.122070
143,0.016113,-0.000977,1.009766,0.000000,-0.427246,0.061035
144,0.016113,0.000977,1.012695,-0.183105,-0.366211,0.061035
145,0.014648,-0.002441,1.008301,-0.366211,-0.366211,0.061035
146,0.014160,-0.001465,1.008789,0.244141,-0.427246,0.122070
147,0.016113,0.000488,1.010254,0.366211,-0.427246,0.183105
148,0.015625,0.003906,1.014648,-0.366211,-0.305176,0.183105
149,0.017090,-0.000977,1.010742,-2.075195,-0.488281,0.488281
150,0.016602,-0.002441,1.007324,-2.197266,-0.488281,0.671387
151,0.015137,-0.004883,1.006836,-1.525879,-0.427246,0.976562
152,0.014648,-0.001953,1.011230,-0.732422,-0.305176,0.793457
153,0.014160,-0.004883,1.008301,-0.671387,-0.427246,0.488281
154,0.014160,-0.003418,1.006836,-0.488281,-0.427246,0.183105
155,0.018066,-0.001953,1.008301,-0.427246,-0.366211,0.244141
156,0.016113,-0.003906,1.009277,-0.183105,-0.305176,0.366211
157,0.017578,-0.000488,1.011230,0.061035,-0.305176,0.488281
158,0.014160,0.000977,1.014648,-1.098633,-0.305176,0.732422
159,0.015137,-0.006348,1.006348,-1.892090,-0.549316,0.671387
160,0.016602,-0.006836,1.004883,-0.915527,-0.366211,0.671387
161,0.016602,-0.006836,1.004883,0.488281,-0.305176,0.671387
162,0.012695,0.001953,1.019531,-0.305176,-0.488281,0.732422
163,0.014160,-0.000977,1.017090,-2.136230,-0.610352,0.366211
164,0.015625,-0.003418,1.007812,-2.319336,-0.549316,0.183105
165,0.015625,-0.007324,1.003418,-1.525879,-0.488281,0.183105
166,0.016113,-0.003418,1.011719,-0.122070,-0.305176,0.183105
167,0.017090,-0.003418,1.011719,-0.305176,-0.366211,0.122070
168,0.015625,-0.003418,1.010742,-0.549316,-0.366211,0.122070
169,0.016602,-0.005371,1.009766,-0.305176,-0.427246,0.122070
170,0.014648,-0.002930,1.009766,0.061035,-0.427246,0.183105
171,0.015625,-0.002441,1.009277,0.183105,-0.366211,0.244141
172,0.015137,-0.000977,1.008789,-0.244141,-0.305176,0.305176
173,0.015137,-0.003906,1.008789,-0.122070,-0.366211,0.244141
174,0.015625,-0.000977,1.013184,0.061035,-0.427246,0.061035
175,0.016113,-0.002441,1.011230,-0.549316,-0.488281,0.061035
176,0.015137,-0.004395,1.007812,-0.732422,-0.427246,0.122070
177,0.017090,-0.005371,1.008301,-0.061035,-0.427246,0.122070
178,0.014648,-0.002930,1.010742,-0.610352,-0.366211,0.183105
179,0.015137,-0.003418,1.010742,-0.854492,-0.427246,0.122070
180,0.016113,-0.003418,1.012207,-0.915527,-0.427246,0.183105
181,0.014648,-0.006348,1.007812,-1.220703,-0.488281,0.183105
182,0.015137,-0.007324,1.005859,-0.610352,-0.427246,0.122070
183,0.015625,-0.005371,1.007812,0.244141,-0.366211,0.122070
184,0.014648,-0.004883,1.010742,0.305176,-0.366211,0.122070
185,0.015137,-0.003418,1.007812,0.122070,-0.427246,0.061035
186,0.014648,-0.002930,1.011230,0.305176,-0.427246,0.061035
187,0.016113,-0.002930,1.012207,0.305176,-0.366211,0.061035
188,0.014648,-0.000977,1.013184,-0.305176,-0.366211,0.061035
189,0.016113,-0.003906,1.007324,-0.793457,-0.488281,0.061035
190,0.016602,-0.002930,1.011719,-0.549316,-0.488281,0.122070
191,0.014160,-0.001953,1.008789,-0.610352,-0.427246,0.000000
192,0.016113,-0.003906,1.009277,-0.610352,-0.427246,0.061035
193,0.016602,-0.004395,1.008301,-0.183105,-0.427246,0.061035
194,0.017090,-0.003906,1.009766,-0.061035,-0.366211,0.061035
195,0.014648,-0.002930,1.011719,0.122070,-0.305176,0.061035
196,0.015137,-0.002930,1.009766,-0.061035,-0.366211,0.122070
197,0.016113,-0.003906,1.008789,0.061035,-0.305176,0.122070
198,0.015137,-0.003418,1.010254,0.305176,-0.305176,0.183105
199,0.014160,-0.001953,1.012695,-0.305176,-0.305176,0.183105
200,0.014648,-0.005859,1.009277,-0.244141,-0.427246,0.183105
201,0.016113,-0.003418,1.010254,-0.610352,-0.549316,0.244141
202,0.013672,0.003906,1.019043,0.122070,-0.305176,0.061035
203,0.015137,-0.000977,1.015137,-1.831055,-0.427246,0.061035
204,0.016113,-0.004883,1.006836,-1.770020,-0.488281,0.122070
205,0.013672,-0.004395,1.005859,-0.061035,-0.366211,0.122070
206,0.016602,-0.002930,1.008789,0.000000,-0.366211,0.122070
207,0.016602,-0.004395,1.010254,0.061035,-0.366211,0.122070
208,0.014648,-0.001953,1.013184,0.122070,-0.427246,0.122070
209,0.015625,-0.002441,1.009277,-0.488281,-0.427246,0.122070
210,0.016113,-0.005371,1.007812,-0.427246,-0.427246,0.122070
211,0.014160,-0.003906,1.009766,0.000000,-0.427246,0.122070
212,0.014648,-0.003418,1.008789,-0.183105,-0.427246,0.122070
213,0.015137,-0.004395,1.010742,-0.122070,-0.427246,0.061035
214,0.016602,-0.003418,1.009766,0.061035,-0.366211,0.061035
215,0.015137,-0.002930,1.006836,0.366211,-0.366211,0.061035
216,0.015137,-0.002930,1.007812,0.366211,-0.366211,0.061035
217,0.014160,-0.000488,1.010742,0.427246,-0.305176,0.122070
218,0.014648,-0.001465,1.014160,-1.770020,-0.488281,0.000000
219,0.015137,-0.007324,1.005371,-1.342773,-0.549316,0.000000
220,0.015137,-0.005859,1.004395,-0.244141,-0.427246,-0.061035
221,0.015625,-0.004395,1.006836,0.549316,-0.305176,0.000000
222,0.015625,0.000000,1.013184,-0.244141,-0.305176,0.061035
223,0.016602,-0.004395,1.009277,-0.183105,-0.366211,0.122070
224,0.015137,-0.003418,1.007812,0.366211,-0.427246,0.122070
225,0.012207,-0.001465,1.015625,-0.427246,-0.427246,0.061035
226,0.016602,0.000000,1.015137,-1.953125,-0.488281,-0.061035
227,0.014648,-0.006348,1.010742,-1.892090,-0.610352,0.061035
228,0.014648,-0.006348,1.005371,-0.854492,-0.427246,-0.122070
229,0.016113,-0.003418,1.010254,-0.549316,-0.366211,-0.122070
230,0.015625,-0.003906,1.009766,-0.305176,-0.366211,-0.061035
231,0.017090,-0.002441,1.009277,0.183105,-0.366211,0.244141
232,0.018066,-0.000977,1.010254,0.244141,-0.366211,0.305176
233,0.016113,-0.003418,1.009277,0.488281,-0.305176,0.366211
234,0.014648,-0.000977,1.010254,0.427246,-0.305176,0.366211
235,0.016113,-0.002930,1.010254,-0.427246,-0.366211,0.183105
236,0.016113,-0.001953,1.012207,-0.366211,-0.305176,0.183105
237,0.016113,-0.000977,1.011230,-0.793457,-0.427246,0.122070
238,0.014160,-0.001953,1.013184,-1.403809,-0.427246,0.183105
239,0.016113,-0.005859,1.004883,-0.305176,-0.366211,0.244141
240,0.015625,-0.003906,1.008301,0.000000,-0.366211,0.183105
241,0.014160,-0.002441,1.008789,0.244141,-0.366211,0.244141
242,0.015625,-0.004883,1.006836,0.793457,-0.366211,0.183105
243,0.016113,-0.001953,1.007812,1.281738,-0.244141,0.305176
244,0.016113,-0.001953,1.013672,-1.525879,-0.488281,0.122070
245,0.016602,-0.004883,1.006836,-1.281738,-0.488281,0.122070
246,0.016113,-0.006836,1.006348,-0.549316,-0.366211,0.183105
247,0.015625,0.000000,1.011719,-0.366211,-0.427246,0.000000
248,0.015625,0.000000,1.014160,-1.220703,-0.427246,0.061035
249,0.015137,-0.005859,1.005859,-1.098633,-0.427246,0.061035
250,0.014648,-0.002930,1.006836,-0.122070,-0.488281,0.061035
251,0.016602,-0.002930,1.009766,0.793457,-0.366211,0.122070
252,0.016113,0.000000,1.014648,0.366211,-0.366211,0.122070
253,0.015625,-0.001465,1.011230,-0.183105,-0.366211,0.122070
254,0.015137,-0.001465,1.011230,-0.732422,-0.366211,0.122070
255,0.014648,-0.003906,1.009766,-0.244141,-0.427246,0.061035
256,0.014648,-0.003906,1.009277,0.061035,-0.366211,0.061035
257,0.013672,-0.002930,1.008789,0.122070,-0.366211,0.122070
258,0.015625,-0.000977,1.011230,0.122070,-0.366211,0.183105
259,0.014648,-0.003906,1.003418,0.061035,-0.305176,0.122070
260,0.015137,0.000000,1.013184,0.427246,-0.366211,0.122070
261,0.014648,-0.000488,1.014648,-0.305176,-0.427246,0.183105
262,0.015137,-0.002441,1.007324,-0.488281,-0.427246,0.122070
263,0.014648,-0.001953,1.007812,0.915527,-0.305176,0.061035
264,0.015137,0.001465,1.014648,0.305176,-0.305176,0.061035
265,0.015625,-0.001953,1.010254,-0.854492,-0.427246,0.061035
266,0.014160,-0.003418,1.008789,-0.793457,-0.427246,0.122070
267,0.014160,-0.002441,1.007812,-0.427246,-0.427246,0.122070
268,0.016602,0.000488,1.011230,-0.183105,-0.366211,0.183105
269,0.014648,-0.003906,1.008301,0.488281,-0.366211,0.122070
270,0.016113,-0.000977,1.009766,0.732422,-0.305176,0.122070
271,0.014648,0.000000,1.014160,0.244141,-0.366211,0.183105
272,0.015625,-0.001953,1.009277,-1.281738,-0.488281,0.061035
273,0.015625,-0.003906,1.008789,-0.793457,-0.488281,0.061035
274,0.016113,0.000000,1.010742,-0.854492,-0.488281,0.000000
275,0.015137,-0.002930,1.009277,-1.281738,-0.427246,0.000000
276,0.015137,-0.003418,1.008301,-0.061035,-0.366211,0.122070
277,0.015137,-0.003418,1.008789,0.427246,-0.305176,0.122070
278,0.015137,0.000000,1.011230,0.366211,-0.305176,0.122070
279,0.014160,-0.002441,1.009766,0.244141,-0.366211,0.122070
280,0.016113,-0.000977,1.012695,-0.305176,-0.366211,0.183105
281,0.015137,-0.000977,1.013672,-1.281738,-0.427246,0.183105
282,0.015625,-0.003906,1.006348,-0.732422,-0.427246,0.122070
283,0.015137,-0.001465,1.009277,-0.366211,-0.366211,0.122070
284,0.014160,-0.002441,1.009766,-0.366211,-0.305176,0.122070
285,0.014160,-0.000977,1.011230,-0.488281,-0.427246,0.122070
286,0.015625,-0.003418,1.007812,0.183105,-0.366211,0.122070
287,0.014648,-0.002930,1.008301,0.427246,-0.366211,0.061035
288,0.014648,-0.005371,1.008301,0.793457,-0.366211,0.000000
289,0.014648,-0.002441,1.008789,1.342773,-0.366211,-0.061035
290,0.014648,-0.003418,1.007812,1.525879,-0.244141,-0.183105
291,0.012207,-0.000488,1.016602,0.915527,-0.244141,-0.305176
292,0.011719,-0.000488,1.012207,-1.647949,-0.610352,-0.671387
293,0.010742,-0.003906,1.011719,-1.770020,-0.549316,-0.915527
294,0.014160,-0.005371,1.002930,-1.098633,-0.427246,-0.915527
295,0.016602,0.003906,1.013184,-0.488281,-0.244141,-0.427246
296,0.019531,0.004395,1.014160,-1.464844,-0.366211,0.061035
297,0.020020,0.000488,1.008301,-1.525879,-0.366211,0.244141
298,0.017578,-0.002441,1.005371,-0.244141,-0.366211,0.732422
299,0.017578,-0.002441,1.007812,0.488281,-0.305176,0.915527
300,0.016113,0.000000,1.009766,0.671387,-0.183105,1.037598
301,0.013672,-0.001465,1.010254,-1.220703,-0.488281,0.610352
302,0.014648,0.000000,1.009766,-0.976562,-0.427246,0.305176
303,0.015625,-0.003418,1.006348,-0.610352,-0.366211,0.183105
304,0.015137,-0.000488,1.011230,-0.854492,-0.366211,0.183105
305,0.017090,-0.004883,1.006836,-0.854492,-0.366211,0.244141
306,0.017578,-0.000977,1.008301,-0.671387,-0.244141,0.305176
307,0.016113,-0.003906,1.009277,-0.305176,-0.366211,0.610352
308,0.014648,-0.001953,1.012695,-0.366211,-0.305176,0.671387
309,0.014160,-0.003418,1.009766,-0.671387,-0.366211,0.549316
310,0.013184,-0.000977,1.008301,-0.305176,-0.366211,0.427246
311,0.013672,-0.000977,1.008789,-0.488281,-0.366211,0.305176
312,0.015625,-0.000488,1.012207,-0.488281,-0.366211,0.183105
313,0.016602,-0.001953,1.010742,-0.610352,-0.366211,0.183105
314,0.016602,-0.003906,1.008301,-0.610352,-0.488281,0.183105
315,0.016113,-0.004395,1.008301,-0.488281,-0.427246,0.183105
316,0.014648,-0.003906,1.008789,0.183105,-0.427246,0.183105
317,0.013672,-0.000977,1.010742,0.244141,-0.305176,0.122070
318,0.015625,-0.001953,1.008301,0.244141,-0.366211,0.122070
319,0.014648,0.000000,1.011719,-0.122070,-0.366211,0.061035
320,0.015625,-0.001953,1.009766,-0.427246,-0.366211,0.122070
321,0.015625,-0.001465,1.009277,-0.488281,-0.427246,0.183105
322,0.016113,-0.003906,1.008789,-0.366211,-0.366211,0.305176
323,0.015625,-0.002930,1.010742,-0.244141,-0.427246,0.305176
324,0.014648,0.000488,1.011230,-0.366211,-0.427246,0.244141
325,0.015625,-0.004883,1.009766,-0.549316,-0.366211,0.061035
326,0.013672,-0.002441,1.007324,0.122070,-0.366211,0.061035
327,0.013672,-0.000977,1.010254,0.122070,-0.366211,0.061035
328,0.014648,0.000488,1.011230,-0.427246,-0.366211,0.000000
329,0.015137,-0.002930,1.007324,-0.244141,-0.427246,0.061035
330,0.016113,-0.005371,1.006836,0.183105,-0.366211,0.061035
331,0.015625,-0.001953,1.011230,0.427246,-0.366211,0.061035
332,0.015625,-0.002441,1.012207,0.244141,-0.366211,0.061035
333,0.014648,-0.002930,1.009277,0.793457,-0.366211,0.061035
334,0.016113,-0.001953,1.004883,1.281738,-0.244141,0.122070
335,0.014648,0.006348,1.018066,0.671387,-0.244141,0.061035
336,0.013672,0.001465,1.013672,-1.037598,-0.366211,0.000000
337,0.014160,-0.002441,1.007324,0.000000,-0.427246,0.000000
338,0.014648,-0.002930,1.006836,0.305176,-0.366211,-0.061035
339,0.015137,-0.002441,1.008301,0.671387,-0.305176,-0.122070
340,0.014160,-0.000488,1.011230,1.037598,-0.244141,-0.122070
341,0.015625,0.002441,1.013184,0.305176,-0.244141,0.000000
342,0.016113,-0.000977,1.009766,-0.305176,-0.366211,0.122070
343,0.014648,-0.000488,1.008789,-0.122070,-0.305176,0.122070
344,0.015625,0.001953,1.011230,-0.183105,-0.366211,0.061035
345,0.016602,0.001465,1.011230,-0.183105,-0.366211,0.122070
346,0.015625,0.001953,1.011719,-0.671387,-0.366211,0.183105
347,0.015137,0.000488,1.010742,-1.159668,-0.427246,0.122070
348,0.015137,-0.001953,1.007324,-1.159668,-0.427246,0.122070
349,0.015137,-0.003906,1.007324,-0.610352,-0.366211,0.122070
350,0.016113,-0.003906,1.007812,0.000000,-0.366211,0.122070
351,0.016113,0.000000,1.012207,0.305176,-0.305176,0.183105
352,0.014648,0.001465,1.010254,-0.610352,-0.366211,0.183105
353,0.015137,-0.000977,1.009766,-0.671387,-0.427246,0.183105
354,0.014648,0.000977,1.012695,-0.976562,-0.427246,0.183105
355,0.014160,0.000488,1.010254,-1.525879,-0.488281,0.244141
356,0.016113,-0.005371,1.006836,-1.159668,-0.427246,0.122070
357,0.016113,-0.004395,1.005859,-0.244141,-0.366211,0.122070
358,0.015137,-0.002930,1.008301,0.366211,-0.244141,0.183105
359,0.016113,-0.002930,1.009277,-1.281738,-0.427246,0.122070
360,0.016113,-0.002930,1.007812,-0.549316,-0.488281,0.183105
361,0.014648,0.000000,1.008301,-0.427246,-0.366211,0.122070
362,0.013672,-0.000977,1.007324,-0.427246,-0.366211,0.122070
363,0.016113,-0.001465,1.009277,-0.122070,-0.305176,0.183105
364,0.015625,0.000000,1.011719,-0.366211,-0.305176,0.183105
365,0.014648,-0.000977,1.011719,-1.220703,-0.366211,0.183105
366,0.015137,-0.002930,1.009766,-1.342773,-0.427246,0.244141
367,0.014648,-0.001953,1.010742,-1.220703,-0.366211,0.244141
368,0.014648,-0.005371,1.006348,-0.793457,-0.366211,0.244141
369,0.015625,-0.001953,1.007812,-0.183105,-0.366211,0.183105
370,0.014648,-0.002441,1.010742,0.244141,-0.305176,0.183105
371,0.014648,-0.003418,1.009766,0.183105,-0.366211,0.122070
372,0.015137,-0.000488,1.009766,0.061035,-0.366211,0.122070
373,0.016113,-0.000977,1.012207,-0.244141,-0.366211,0.061035
374,0.015625,-0.003418,1.009766,-0.061035,-0.366211,0.122070
375,0.015137,-0.000977,1.011719,-0.244141,-0.366211,0.061035
376,0.015137,-0.002930,1.010742,-0.610352,-0.427246,0.122070
377,0.014648,-0.002930,1.009277,-0.488281,-0.427246,0.122070
378,0.015137,-0.000977,1.009277,-0.183105,-0.427246,0.122070
379,0.014648,-0.001953,1.008789,-0.366211,-0.427246,0.061035
380,0.014648,-0.002441,1.008301,-0.061035,-0.427246,0.122070
381,0.015137,-0.002930,1.007324,0.305176,-0.366211,0.061035
382,0.016113,-0.002441,1.011230,0.488281,-0.366211,0.061035
383,0.016113,-0.002930,1.009766,0.732422,-0.305176,0.061035
384,0.015137,0.000000,1.011719,0.366211,-0.305176,0.061035
385,0.014648,0.000000,1.010254,-0.244141,-0.305176,0.061035
386,0.015625,-0.000977,1.010254,-0.366211,-0.366211,0.183105
387,0.014648,0.000977,1.011230,-0.366211,-0.427246,0.183105
388,0.015625,0.000488,1.013184,-1.342773,-0.427246,0.122070
389,0.015625,-0.004395,1.006836,-1.220703,-0.488281,0.183105
390,0.014648,-0.002441,1.007812,0.183105,-0.366211,0.061035
391,0.016113,-0.001465,1.010742,0.183105,-0.305176,0.122070
392,0.015625,-0.000977,1.009766,-0.305176,-0.366211,0.061035
393,0.014648,-0.002930,1.009277,-0.427246,-0.366211,0.122070
394,0.014160,-0.002930,1.007812,0.061035,-0.305176,0.061035
395,0.015625,-0.002441,1.008789,0.488281,-0.305176,0.061035
396,0.014160,0.003418,1.016602,-0.061035,-0.366211,0.122070
397,0.016113,0.000488,1.013184,-1.098633,-0.488281,0.122070
398,0.015137,0.000000,1.011719,-1.464844,-0.488281,0.122070
399,0.016602,-0.003418,1.006348,-0.915527,-0.427246,0.061035
400,0.015625,-0.001953,1.008789,-0.488281,-0.366211,0.122070
401,0.015137,-0.002930,1.008301,0.000000,-0.305176,0.122070
402,0.015137,-0.000977,1.009277,0.488281,-0.305176,0.122070
403,0.015625,0.000000,1.009277,0.366211,-0.305176,0.122070
404,0.015625,0.003418,1.016113,-1.159668,-0.427246,0.122070
405,0.015625,-0.000977,1.008789,-1.708984,-0.488281,0.183105
406,0.014160,-0.001953,1.008301,-1.525879,-0.427246,0.183105
407,0.015137,-0.002441,1.009277,-1.525879,-0.427246,0.183105
408,0.015625,-0.003906,1.009766,-0.732422,-0.427246,0.183105
409,0.014648,-0.003418,1.006348,-0.305176,-0.366211,0.183105
410,0.015625,-0.002441,1.008789,0.549316,-0.305176,0.183105
411,0.015625,-0.000488,1.012695,0.183105,-0.244141,0.122070
412,0.014648,-0.000977,1.010254,0.000000,-0.305176,0.183105
413,0.015137,-0.002441,1.008789,-0.305176,-0.366211,0.122070
414,0.015625,-0.003418,1.008789,-0.488281,-0.427246,0.122070
415,0.015137,-0.001953,1.009277,-0.427246,-0.427246,0.061035
416,0.016113,-0.002441,1.005859,-0.305176,-0.366211,0.183105
417,0.015625,-0.001953,1.009277,-0.183105,-0.427246,0.122070
418,0.014648,-0.002930,1.010742,-0.183105,-0.305176,0.122070
419,0.015137,-0.002930,1.008301,0.122070,-0.366211,0.183105
420,0.015625,-0.002441,1.009766,0.549316,-0.305176,0.122070
421,0.016113,0.000000,1.011719,0.244141,-0.305176,0.000000
422,0.014160,0.001465,1.012207,-0.244141,-0.366211,0.061035
423,0.014648,0.000000,1.008789,-0.915527,-0.366211,0.061035
424,0.015625,-0.002930,1.008789,-0.854492,-0.427246,0.122070
425,0.015625,-0.001953,1.008789,0.183105,-0.305176,0.061035
426,0.015137,-0.000977,1.007324,0.183105,-0.305176,0.061035
427,0.016602,-0.001953,1.010742,0.732422,-0.305176,0.122070
428,0.016113,-0.001953,1.008789,0.732422,-0.305176,0.122070
429,0.014160,0.000000,1.012207,0.427246,-0.305176,0.122070
430,0.015625,0.004883,1.017090,-0.427246,-0.366211,0.122070
431,0.015625,0.001953,1.013184,-1.647949,-0.488281,0.122070
432,0.014648,-0.003418,1.005371,-1.281738,-0.488281,0.183105
433,0.016113,-0.001465,1.007812,0.183105,-0.305176,0.122070
434,0.016602,-0.000488,1.011719,0.061035,-0.366211,0.122070
435,0.016113,0.000488,1.011719,-0.366211,-0.366211,0.122070
436,0.014648,-0.001953,1.006836,-0.549316,-0.366211,0.122070
437,0.015137,-0.001953,1.008789,0.610352,-0.305176,0.122070
438,0.014648,0.000977,1.009766,0.732422,-0.305176,0.122070
439,0.014648,0.003906,1.013184,-0.122070,-0.366211,0.122070
440,0.016602,-0.000488,1.009277,-0.244141,-0.427246,0.122070
441,0.014648,0.000000,1.012207,-0.305176,-0.366211,0.061035
442,0.014648,0.000977,1.015137,-0.671387,-0.427246,0.183105
443,0.015625,-0.001953,1.008301,-0.793457,-0.488281,0.183105
444,0.016113,-0.001465,1.008789,-0.305176,-0.366211,0.122070
445,0.014648,-0.001465,1.008301,-0.549316,-0.366211,0.122070
446,0.016602,-0.000977,1.010742,-0.732422,-0.366211,0.183105
447,0.016602,-0.002441,1.006348,-0.427246,-0.305176,0.122070
448,0.014648,-0.001953,1.009277,-0.183105,-0.305176,0.122070
449,0.014648,-0.001465,1.009766,0.122070,-0.305176,0.122070
450,0.013672,-0.001953,1.013184,-0.427246,-0.366211,0.183105
451,0.015137,0.001465,1.013184,-0.854492,-0.366211,0.183105
452,0.014160,-0.001465,1.008301,-1.220703,-0.427246,0.183105
453,0.015137,0.000000,1.009766,-0.793457,-0.366211,0.183105
454,0.014160,0.000488,1.010742,-0.793457,-0.488281,0.183105
455,0.014648,0.000977,1.012695,-1.159668,-0.366211,0.183105
456,0.016113,-0.004883,1.006836,-0.549316,-0.427246,0.122070
457,0.014160,-0.002930,1.011719,-0.244141,-0.366211,0.122070
458,0.014160,0.000000,1.014648,-0.915527,-0.427246,0.061035
459,0.016113,-0.000977,1.010254,-2.441406,-0.488281,0.122070
460,0.017578,-0.004883,1.006348,-1.953125,-0.549316,0.122070
461,0.016602,-0.006348,1.007324,-0.915527,-0.427246,0.122070
462,0.012207,-0.003906,1.012207,0.244141,-0.488281,0.183105
463,0.013184,-0.000977,1.010742,-0.610352,-0.305176,0.122070
464,0.016113,-0.002930,1.007812,-0.427246,-0.427246,0.122070
465,0.014160,-0.005859,1.004883,-0.305176,-0.366211,0.122070
466,0.015137,-0.000977,1.012695,0.366211,-0.244141,0.732422
467,0.016602,-0.004395,1.008789,0.854492,-0.366211,0.671387
468,0.016113,-0.005371,1.009766,-0.610352,-0.427246,0.976562
469,0.013184,-0.001953,1.012695,-0.671387,-0.427246,0.915527
470,0.015625,-0.001465,1.010742,-0.976562,-0.366211,0.732422
471,0.015137,-0.002930,1.007324,-0.793457,-0.427246,0.549316
472,0.015625,-0.002441,1.012695,-0.122070,-0.366211,0.366211
473,0.015625,-0.001953,1.012695,-0.427246,-0.427246,0.305176
474,0.015625,-0.003418,1.009277,-0.549316,-0.427246,0.183105
475,0.016113,-0.004883,1.008301,-0.427246,-0.366211,0.122070
476,0.015625,-0.004883,1.007812,-0.183105,-0.366211,0.061035
477,0.015137,-0.003418,1.009766,-0.122070,-0.305176,0.122070
478,0.016113,-0.003418,1.010254,-0.183105,-0.427246,0.122070
479,0.014160,-0.002930,1.008789,-0.061035,-0.366211,0.061035
480,0.015137,-0.001953,1.007324,0.000000,-0.366211,0.122070
481,0.014648,-0.001953,1.009766,0.366211,-0.305176,0.122070
482,0.016113,-0.004395,1.009766,0.305176,-0.305176,0.183105
483,0.016113,-0.003906,1.010254,0.610352,-0.305176,0.122070
484,0.016113,-0.003418,1.007324,0.976562,-0.305176,0.183105
485,0.015137,0.000488,1.011719,0.915527,-0.366211,0.183105
486,0.014160,0.001465,1.013184,0.122070,-0.366211,0.183105
487,0.014648,0.000000,1.009766,-0.183105,-0.366211,0.183105
488,0.016602,0.000488,1.011719,-0.488281,-0.366211,0.244141
489,0.014160,-0.000488,1.010742,-1.159668,-0.366211,0.244141
490,0.015137,-0.002441,1.009277,-1.159668,-0.366211,0.244141
491,0.014648,-0.004883,1.006836,-0.549316,-0.366211,0.183105
492,0.015137,-0.000488,1.011230,-0.061035,-0.366211,0.305176
493,0.015137,-0.002441,1.009766,-0.427246,-0.366211,0.244141
494,0.014160,-0.003906,1.008301,-0.488281,-0.427246,0.183105
495,0.016602,-0.001953,1.007812,0.610352,-0.305176,0.183105
496,0.014648,0.001953,1.014160,0.183105,-0.305176,0.305176
497,0.013672,0.001953,1.013184,-0.610352,-0.366211,0.305176
498,0.014160,-0.000488,1.009277,-1.281738,-0.366211,0.122070
499,0.015625,-0.004395,1.007324,-1.037598,-0.427246,0.122070
500,0.015625,-0.004883,1.006348,-0.427246,-0.366211,0.122070
501,0.015625,-0.002441,1.010254,-0.061035,-0.366211,0.122070
502,0.014648,-0.004883,1.007812,0.122070,-0.366211,0.061035
503,0.015625,-0.000977,1.010254,0.244141,-0.427246,0.061035
504,0.014648,-0.001465,1.009277,0.061035,-0.366211,0.122070
505,0.016113,0.000000,1.009277,0.122070,-0.305176,0.183105
506,0.014648,0.001465,1.010742,-0.244141,-0.305176,0.122070
507,0.014160,0.000488,1.012207,-0.854492,-0.427246,0.122070
508,0.016113,-0.003418,1.007812,-0.366211,-0.427246,0.122070
509,0.015137,-0.002930,1.006836,0.122070,-0.366211,0.122070
510,0.016113,0.000488,1.013184,-0.488281,-0.366211,0.122070
511,0.015625,-0.001465,1.012207,-1.281738,-0.427246,0.183105
512,0.016113,-0.001953,1.008301,-1.220703,-0.427246,0.183105
513,0.015137,-0.002930,1.008301,-1.098633,-0.366211,0.183105
514,0.016113,-0.002441,1.007812,0.122070,-0.305176,0.183105
515,0.015625,-0.001953,1.010742,0.244141,-0.305176,0.183105
516,0.014160,-0.002441,1.010742,0.366211,-0.305176,0.122070
517,0.016113,-0.001465,1.011230,0.183105,-0.366211,0.122070
518,0.016113,-0.001953,1.011230,-0.976562,-0.427246,0.122070
519,0.014160,-0.002441,1.014648,-1.525879,-0.427246,0.122070
520,0.017090,0.000977,1.011230,-1.892090,-0.305176,0.061035
521,0.016113,-0.008301,1.003418,-1.037598,-0.427246,0.244141
522,0.013672,-0.015137,0.990723,1.525879,-0.122070,-0.366211
523,0.013672,-0.030762,0.984863,7.019043,0.061035,-1.098633
524,0.021484,-0.015137,0.981934,29.541016,0.305176,-1.281738
525,0.032227,0.065918,1.048340,29.968262,0.549316,1.159668
526,0.060547,0.128418,1.061035,-1.647949,0.671387,17.333984
527,0.054688,0.063965,1.005371,-8.300781,-0.915527,31.738281
528,0.064453,0.057129,0.982422,-4.150391,-0.305176,45.288086
529,0.093262,0.154297,1.041016,-3.051758,-0.183105,62.683105
530,0.065918,0.043457,1.009766,-27.160645,-3.845215,90.209961
531,-0.104004,-0.105957,1.034668,-27.282715,-4.333496,69.702148
532,-0.203125,-0.083008,1.131348,-37.658691,-6.591797,33.386230
533,0.046387,0.000488,1.438965,-87.524414,-6.835938,9.094238
534,0.142578,0.129883,1.309570,-125.122070,-9.277344,9.887695
535,0.042480,-0.219727,0.959473,-96.374512,-47.607422,37.048340
536,-0.129395,-0.227051,0.979004,-79.223633,-58.349609,39.245605
537,-0.164551,-0.194336,1.369141,-91.674805,-66.162109,31.799316
538,-0.020508,-0.128906,1.247070,-134.338379,-91.857910,9.399414
539,0.096191,-0.199219,0.910645,-141.540527,-87.768555,5.615234
540,0.124512,-0.254395,0.872559,-135.375977,-65.979004,5.493164
541,0.128906,-0.216309,0.926270,-128.417969,-45.288086,7.324219
542,0.136719,-0.164062,0.980469,-90.209961,-19.653320,12.817383
543,0.107422,-0.179199,1.157715,-75.866699,-10.864258,9.704590
544,0.162598,-0.319824,0.917480,-78.002930,19.042969,-2.624512
545,0.186035,-0.324219,0.877930,-73.242188,46.997070,-1.953125
546,0.176270,-0.306641,0.995605,-65.002441,62.744141,2.441406
547,0.108887,-0.272949,1.366699,-75.134277,46.386719,7.873535
548,0.081543,-0.259277,1.363770,-96.130371,20.874023,6.958008
549,0.076172,-0.295410,1.190918,-107.604980,2.563477,11.840820
550,0.059570,-0.363770,1.111816,-108.764648,-3.173828,16.174316
551,0.050781,-0.417969,1.121582,-106.445312,-3.479004,16.601562
552,0.059570,-0.421875,1.117676,-99.670410,-5.004883,14.465332
553,0.097168,-0.390137,1.075684,-92.468262,-2.380371,13.671875
554,0.135742,-0.399414,1.010254,-78.552246,13.854980,18.066406
555,0.104980,-0.423340,1.005859,-72.387695,25.756836,17.639160
556,0.098633,-0.406250,1.017090,-66.284180,34.118652,14.770508
557,0.130859,-0.375977,0.977051,-48.217773,32.226562,7.385254
558,0.098145,-0.416016,0.864258,-41.015625,43.701172,7.629395
559,0.042969,-0.452148,0.813965,-34.179688,61.340332,3.051758
560,-0.023926,-0.464355,0.756836,-24.230957,87.890625,-10.742188
561,0.115723,-0.257324,0.826172,-8.972168,80.993652,-5.371094
562,-0.014648,-0.469727,0.554688,21.545410,69.824219,-0.244141
563,-0.080078,-0.438965,0.412598,56.945801,72.753906,-1.220703
564,-0.238281,-0.401367,0.361328,100.097656,58.044434,-20.263672
565,-0.256348,-0.331543,0.242188,126.281738,56.335449,-31.982422
566,-0.231445,-0.305176,0.235840,158.996582,56.396484,-44.067383
567,-0.250488,-0.319824,0.576172,181.701660,47.790527,-58.410645
568,-0.279297,-0.259277,0.652344,118.103027,39.062500,-81.237793
569,-0.198730,-0.267090,0.665527,69.396973,43.762207,-82.580566
570,-0.135254,-0.268555,0.693848,10.986328,47.424316,-80.932617
571,-0.168457,-0.288086,0.687988,-35.766602,39.855957,-76.293945
572,-0.302734,-0.371582,0.702148,-31.250000,-17.272949,-69.335938
573,-0.276367,-0.354980,0.717285,-14.892578,-43.579102,-63.659668
574,-0.191895,-0.370605,0.736328,-6.286621,-58.898926,-61.035156
575,-0.049805,-0.327637,0.784668,-18.615723,-63.598633,-69.763184
576,0.008301,-0.282715,0.888184,-34.545898,-67.321777,-77.026367
577,0.063965,-0.294922,0.930176,-52.673340,-76.049805,-83.801270
578,0.159180,-0.443848,0.700684,-61.828613,-80.993652,-98.266602
579,0.259277,-0.494141,0.616699,-54.809570,-71.899414,-101.806641
580,0.462402,-0.775879,0.624023,-28.442383,-70.129395,-95.092773
581,0.554688,-0.840332,0.845215,-15.197754,-65.063477,-93.688965
582,0.633301,-0.857910,0.997070,-7.080078,-68.664551,-86.608887
583,0.773438,-0.805176,0.952637,9.643555,-64.270020,-54.870605
584,0.799316,-0.768555,0.949707,14.465332,-50.170898,-33.508301
585,0.767090,-0.779297,0.948730,10.192871,-30.822754,-11.291504
586,0.642090,-0.848145,0.770508,-4.943848,14.221191,21.667480
587,0.601074,-0.838379,0.726074,-0.244141,33.081055,38.635254
588,0.557617,-0.802246,0.773438,7.446289,38.696289,56.579590
589,0.512695,-0.755371,0.862305,8.483887,30.273438,73.242188
590,0.476074,-0.628906,0.896973,8.056641,-10.253906,98.876953
591,0.433594,-0.563477,1.007812,1.647949,-31.005859,107.604980
592,0.380859,-0.529785,1.000977,-14.465332,-46.142578,112.976074
593,0.288574,-0.540039,0.777344,-15.197754,-42.480469,114.440918
594,0.275879,-0.530273,0.799805,1.098633,-36.376953,113.708496
595,0.272949,-0.511719,0.887695,10.803223,-32.287598,113.525391
596,0.269043,-0.484375,0.981934,7.568359,-32.409668,115.966797
597,0.174316,-0.522949,0.927734,-10.986328,-32.836914,115.478516
598,0.181641,-0.500488,0.872070,-13.183594,-29.968262,114.807129
599,0.124023,-0.507812,0.856445,10.803223,-23.681641,110.229492
600,0.150391,-0.413574,0.866211,30.090332,-27.893066,108.520508
601,0.241211,-0.214355,0.788086,48.522949,-28.686523,117.614746
602,0.158691,-0.255859,0.751465,61.218262,-20.935059,130.432129
603,-0.022949,-0.299805,0.908691,62.988281,-6.713867,120.117188
604,-0.032227,-0.316895,0.938965,59.020996,-7.019043,110.900879
605,-0.008789,-0.304199,0.992188,51.513672,-9.277344,100.402832
606,0.006836,-0.323242,1.011719,33.630371,-16.174316,89.965820
607,0.007812,-0.282715,0.932129,29.846191,-15.502930,91.674805
608,-0.053711,-0.208008,0.889160,35.339355,-11.169434,91.064453
609,-0.174805,-0.249512,0.865234,67.321777,1.953125,78.735352
610,-0.201172,-0.230469,0.929199,71.838379,7.446289,63.110352
611,-0.174316,-0.196289,0.960938,75.195312,7.507324,48.828125
612,-0.153809,-0.156738,0.937012,82.275391,4.333496,37.841797
613,-0.185059,-0.103027,0.914062,87.341309,4.638672,16.723633
614,-0.218750,-0.058105,0.930664,74.645996,6.713867,4.211426
615,-0.276367,-0.023438,0.978027,46.020508,3.417969,-20.874023
616,-0.222656,-0.015625,1.067871,33.142090,-3.967285,-33.874512
617,-0.120605,0.056152,1.062500,21.362305,-7.507324,-38.513184
618,-0.094727,0.037598,0.998047,14.648438,-4.455566,-34.301758
619,-0.138184,-0.060547,0.975098,10.742188,2.258301,-34.973145
620,-0.198242,-0.078125,1.027832,1.159668,11.108398,-50.476074
621,-0.175293,-0.056152,1.023438,-6.103516,13.000488,-58.654785
622,-0.147949,-0.067871,1.005859,-10.009766,12.817383,-67.321777
623,-0.130859,-0.134277,0.947266,-5.859375,10.437012,-86.730957
624,-0.115723,-0.162109,0.912598,2.685547,8.728027,-97.045898
625,-0.115723,-0.168945,0.897461,6.103516,10.131836,-104.614258
626,-0.102051,-0.170410,0.989258,-8.178711,11.230469,-119.323730
627,-0.032227,-0.121094,1.015137,-14.831543,5.310059,-123.962402
628,0.032227,-0.114746,0.980469,-18.981934,-1.281738,-123.291016
629,0.056641,-0.155762,0.944824,-19.042969,-8.911133,-121.887207
630,0.011719,-0.102051,0.940918,-17.211914,-17.028809,-130.493164
631,0.050781,-0.149414,0.932129,-9.582520,-16.418457,-135.498047
632,0.148438,-0.228516,1.124023,-30.395508,-5.371094,-158.508301
633,0.257812,-0.251465,1.015625,-38.879395,-5.493164,-155.334473
634,0.338379,-0.295410,0.913574,-35.339355,-0.244141,-143.493652
635,0.241211,-0.432617,0.882812,-28.015137,14.770508,-119.812012
636,0.198242,-0.438477,0.881836,-28.869629,12.512207,-119.201660
637,0.155273,-0.435547,0.815918,-29.113770,3.479004,-129.943848
638,0.377441,-0.331543,1.011719,-15.014648,-46.447754,-150.024414
639,0.532715,-0.350098,1.146484,-19.592285,-73.364258,-141.235352
640,0.645508,-0.461426,0.975586,-50.842285,-86.059570,-87.341309
641,0.623535,-0.519043,0.794434,-56.091309,-63.171387,-58.288574
642,0.593750,-0.500977,0.668945,-54.382324,-30.334473,-39.367676
643,0.546387,-0.530273,0.659180,-52.856445,-2.014160,-31.677246
644,0.595703,-0.747559,0.857910,-44.616699,7.812500,-35.644531
645,0.658203,-0.813965,0.954102,-27.954102,-7.263184,-33.386230
646,0.714844,-0.767090,0.939941,-15.441895,-18.554688,-21.850586
647,0.722168,-0.537109,0.822266,-18.188477,-8.605957,18.066406
648,0.626465,-0.502441,0.758301,-22.277832,2.075195,34.606934
649,0.503906,-0.542969,0.825195,-22.277832,7.629395,41.076660
650,0.431152,-0.772949,0.831543,-15.258789,3.234863,33.691406
651,0.506836,-0.716309,0.712891,9.765625,0.244141,28.503418
652,0.581543,-0.472168,0.605469,39.550781,6.530762,32.775879
653,0.548828,-0.305176,0.600098,65.856934,35.522461,58.227539
654,0.403320,-0.385742,0.938477,59.936523,37.475586,61.340332
655,0.436035,-0.432129,1.184082,34.301758,23.071289,61.035156
656,0.493164,-0.515625,0.970215,-23.620605,-4.699707,85.510254
657,0.452148,-0.558594,0.891113,-28.015137,-4.516602,94.055176
658,0.401855,-0.419922,0.812988,-14.831543,-4.333496,94.604492
659,0.306641,-0.347656,0.773438,12.512207,-4.943848,96.130371
660,0.239746,-0.572754,0.919434,40.771484,-9.765625,87.158203
661,0.313965,-0.622559,0.904785,44.128418,-9.094238,84.960938
662,0.376465,-0.654785,0.769043,43.334961,-3.540039,91.796875
663,0.376465,-0.559570,0.835938,41.870117,5.126953,108.703613
664,0.358887,-0.170410,0.766113,35.217285,6.713867,114.257812
665,0.349609,0.225586,1.010742,16.479492,3.662109,140.625000
666,0.017090,-0.153809,1.064453,-58.044434,-61.645508,172.668457
667,0.036133,-0.175781,0.854004,-51.757812,-91.186523,165.710449
668,0.093750,-0.200195,0.733887,-30.883789,-95.458984,158.508301
669,-0.027344,-0.435547,0.644531,-7.141113,-77.148438,145.812988
670,0.009277,-0.220703,0.831543,88.256836,-15.563965,82.275391
671,-0.036133,-0.144043,0.844727,108.520508,14.221191,61.523438
672,-0.055664,-0.129883,0.966309,113.220215,41.564941,44.494629
673,-0.034180,-0.063965,1.109863,69.580078,64.086914,35.339355
674,-0.064453,-0.059570,1.150391,43.945312,57.189941,41.015625
675,-0.118164,-0.089355,1.089355,21.728516,40.222168,46.447754
676,-0.145996,-0.092773,0.949707,8.728027,25.146484,50.659180
677,-0.208984,-0.171387,0.871094,29.724121,-10.375977,55.786133
678,-0.286133,-0.121094,0.951660,48.645020,-33.691406,51.269531
679,-0.405273,0.292480,1.130371,34.912109,-56.274414,43.212891
680,-0.214844,0.034180,1.167969,4.516602,-51.269531,13.122559
681,-0.134277,-0.017090,0.976562,-17.578125,-32.592773,5.737305
682,-0.111816,0.005859,1.028320,-23.925781,-13.427734,-1.342773
683,-0.130371,0.000977,1.057617,-28.381348,-1.464844,-11.474609
684,-0.101562,-0.001465,1.036133,-22.399902,2.014160,-13.549805
685,-0.128906,-0.090820,1.048828,-19.653320,2.136230,-18.310547
686,-0.128418,-0.140137,1.032227,-9.765625,4.760742,-45.043945
687,-0.118164,-0.142090,1.045410,-8.239746,7.019043,-59.692383
688,-0.106445,-0.125000,1.032715,-8.544922,8.911133,-73.913574
689,-0.018066,-0.148926,1.041504,-12.023926,6.042480,-91.430664
690,0.041016,-0.187500,1.021973,-15.136719,4.638672,-90.332031
691,0.086426,-0.198730,0.981934,-18.188477,5.859375,-85.998535
692,0.098145,-0.188965,0.959961,-21.667480,6.774902,-81.909180
693,0.020508,-0.165039,1.000000,-26.672363,0.915527,-84.106445
694,-0.000488,-0.148926,1.007324,-34.790039,-5.310059,-93.017578
695,-0.001465,-0.120605,1.014160,-40.832520,-12.451172,-104.675293
696,0.061523,-0.108887,0.980469,-49.682617,-20.812988,-124.267578
697,0.123047,-0.162598,0.895020,-53.161621,-15.136719,-132.629395
698,0.172852,-0.154297,0.904785,-55.725098,-2.197266,-143.859863
699,0.245117,-0.169922,0.903809,-56.823730,-0.793457,-144.165039
700,0.337402,-0.319336,0.952637,-61.889648,-17.944336,-167.541504
701,0.410645,-0.340820,0.915039,-63.842773,-28.076172,-171.081543
702,0.443848,-0.365723,0.817871,-59.448242,-27.343750,-168.151855
703,0.504883,-0.426270,0.790039,-34.851074,-10.864258,-148.376465
704,0.479980,-0.439941,0.784668,-20.568848,0.549316,-138.427734
705,0.467285,-0.389160,0.874023,-17.944336,5.187988,-126.708984
706,0.498535,-0.452148,0.948242,-30.761719,-8.789062,-126.403809
707,0.599609,-0.449707,0.918945,-47.302246,-30.334473,-120.910645
708,0.705566,-0.527344,0.799805,-55.053711,-45.471191,-103.088379
709,0.754395,-0.598145,0.680176,-54.260254,-41.137695,-83.374023
710,0.795410,-0.657715,0.611816,-38.879395,-14.953613,-50.170898
711,0.791016,-0.653320,0.626465,-27.893066,-6.652832,-40.710449
712,0.814941,-0.620117,0.773438,-11.047363,-10.620117,-24.169922
713,0.823730,-0.631836,0.770996,-14.892578,-16.174316,-17.150879
714,0.832520,-0.650879,0.711426,-11.840820,-18.920898,-7.385254
715,0.828125,-0.705566,0.618164,1.892090,-15.686035,3.479004
716,0.782715,-0.657227,0.625977,32.592773,11.962891,30.517578
717,0.740234,-0.629883,0.687012,41.748047,23.986816,44.982910
718,0.690918,-0.598145,0.748535,46.508789,31.311035,56.823730
719,0.656738,-0.485352,0.902832,39.489746,33.935547,77.331543
720,0.632812,-0.486328,0.880859,36.743164,31.188965,86.181641
721,0.622070,-0.469727,0.843262,40.588379,30.822754,93.872070
722,0.569824,-0.436523,0.855957,56.640625,34.240723,109.313965
723,0.564941,-0.431641,0.892090,59.997559,35.705566,119.018555
724,0.537109,-0.426270,0.886230,62.805176,37.414551,129.089355
725,0.498047,-0.350098,0.945312,63.110352,42.297363,149.291992
726,0.426758,-0.319336,0.920898,62.255859,40.771484,156.372070
727,0.312500,-0.201172,0.847656,69.458008,39.245605,161.071777
728,0.251465,-0.173828,0.874512,69.213867,39.855957,160.949707
729,0.233398,-0.102051,0.894043,64.636230,41.809082,161.132812
730,0.127930,-0.148926,0.956055,40.588379,39.306641,159.912109
731,0.085449,-0.158691,0.898438,34.423828,35.095215,153.564453
732,0.044922,-0.138672,0.872070,49.682617,29.602051,135.620117
733,0.031250,-0.153809,0.873535,66.894531,29.846191,129.394531
734,0.004395,-0.122070,0.849121,81.909180,37.719727,123.596191
735,-0.036621,-0.062012,0.880859,86.914062,50.659180,116.821289
736,-0.120117,-0.037109,0.960938,68.481445,63.659668,99.304199
737,-0.147949,-0.014160,1.017090,57.495117,58.898926,88.806152
738,-0.184570,0.000977,1.030273,45.654297,24.536133,74.279785
739,-0.187500,0.020996,1.038574,38.513184,4.882812,70.922852
740,-0.211914,0.040527,1.040527,27.221680,-15.563965,69.702148
741,-0.238281,0.073242,1.000000,14.038086,-33.752441,68.542480
742,-0.330078,0.100098,0.927246,-6.347656,-46.325684,56.213379
743,-0.343262,0.124023,0.952637,-10.009766,-42.663574,41.259766
744,-0.296387,0.091309,1.039551,-10.131836,-27.893066,7.751465
745,-0.269043,0.093262,1.015137,-3.479004,-16.479492,-6.103516
746,-0.255859,0.113281,0.991699,8.911133,5.554199,-25.634766
747,-0.248047,0.088379,0.987793,8.178711,12.878418,-32.958984
748,-0.277832,0.091309,1.044434,4.577637,15.075684,-41.015625
749,-0.281250,0.062988,1.024902,1.159668,10.375977,-48.828125
750,-0.258301,0.029785,1.020996,-7.446289,-0.061035,-75.744629
751,-0.190430,0.039062,1.057129,-14.892578,-9.155273,-87.585449
752,-0.062988,0.000977,1.104004,-34.851074,-28.320312,-100.524902
753,-0.009277,-0.019043,1.056641,-39.611816,-32.714844,-101.379395
754,0.039551,-0.036133,1.038574,-43.212891,-31.250000,-100.036621
755,0.035645,-0.100586,0.997559,-50.903320,-15.197754,-99.548340
756,0.027344,-0.096680,1.031250,-55.053711,-9.033203,-104.370117
757,0.031250,-0.117188,1.017090,-55.053711,-9.338379,-110.351562
758,0.047852,-0.136719,0.987305,-52.368164,-14.160156,-116.333008
759,0.078613,-0.160156,0.909180,-52.185059,-28.808594,-126.708984
760,0.094238,-0.166992,0.851562,-53.771973,-36.376953,-130.920410
761,0.181641,-0.195312,0.885742,-50.048828,-51.635742,-132.324219
762,0.224609,-0.229004,0.890137,-44.433594,-55.297852,-130.371094
763,0.241699,-0.242676,0.830566,-44.494629,-50.537109,-131.896973
764,0.297852,-0.194824,0.875488,-49.743652,-37.658691,-126.525879
765,0.269043,-0.270996,0.911133,-65.185547,-30.029297,-129.394531
766,0.300293,-0.237305,0.907227,-70.068359,-38.024902,-130.432129
767,0.354004,-0.271973,0.927246,-70.251465,-45.837402,-129.150391
768,0.469727,-0.420898,0.843750,-56.091309,-40.649414,-124.084473
769,0.543945,-0.444336,0.775391,-50.659180,-20.874023,-122.070312
770,0.564453,-0.462891,0.776367,-39.978027,-4.028320,-117.065430
771,0.545410,-0.439941,0.837891,-14.404297,-9.704590,-108.032227
772,0.589355,-0.364746,0.913086,-14.953613,-26.489258,-100.585938
773,0.635254,-0.392090,0.911621,-24.719238,-38.818359,-85.327148
774,0.698730,-0.523438,0.795898,-36.437988,-34.362793,-56.762695
775,0.709473,-0.549316,0.755859,-33.264160,-25.817871,-45.654297
776,0.714844,-0.536133,0.756836,-28.076172,-18.859863,-34.118652
777,0.738770,-0.562988,0.775391,-11.596680,-18.798828,-7.934570
778,0.753418,-0.580566,0.785156,-3.540039,-18.798828,6.164551
779,0.758789,-0.562988,0.795898,3.417969,-15.625000,20.507812
780,0.756836,-0.533203,0.809570,6.042480,-7.263184,34.057617
781,0.721191,-0.465332,0.847656,15.380859,12.451172,50.659180
782,0.696289,-0.449707,0.903809,18.493652,16.235352,57.434082
783,0.684082,-0.454590,0.925293,18.493652,17.028809,63.537598
784,0.665527,-0.477051,0.895996,20.263672,24.841309,83.557129
785,0.640137,-0.481934,0.878418,28.076172,32.714844,96.374512
786,0.603516,-0.468750,0.861328,36.621094,42.175293,108.886719
787,0.534180,-0.396973,0.905762,47.851562,53.222656,126.037598
788,0.497559,-0.370605,0.916016,49.499512,49.865723,133.972168
789,0.445801,-0.339844,0.897461,49.804688,45.837402,141.174316
790,0.312988,-0.286133,0.871094,41.259766,33.386230,151.367188
791,0.264648,-0.242676,0.842285,35.156250,31.494141,151.062012
792,0.248047,-0.225586,0.888184,27.832031,30.700684,149.963379
793,0.235840,-0.231445,0.914551,24.108887,29.663086,148.010254
794,0.226562,-0.243652,0.922852,25.207520,30.944824,147.766113
795,0.155762,-0.250977,0.865723,32.592773,35.339355,149.047852
796,0.026367,-0.192383,0.807617,45.837402,48.034668,140.808105
797,-0.009766,-0.152832,0.845215,47.790527,47.851562,134.338379
798,0.000000,-0.150391,0.943359,43.212891,43.579102,129.394531
799,-0.013672,-0.196777,0.919434,37.536621,38.696289,124.572754
800,-0.075195,-0.166016,0.836426,37.353516,39.855957,114.257812
801,-0.133301,-0.143555,0.860840,41.625977,36.376953,106.323242
802,-0.193848,-0.061035,0.984375,46.142578,10.620117,91.125488
803,-0.183105,-0.059570,1.046387,35.217285,-5.065918,86.364746
804,-0.186523,-0.062012,1.013184,22.033691,-16.052246,82.153320
805,-0.257324,-0.023438,0.938477,7.141113,-23.254395,67.260742
806,-0.305176,-0.021484,0.922363,7.873535,-25.756836,52.429199
807,-0.306152,0.024414,0.959473,11.657715,-30.761719,35.278320
808,-0.225098,0.003906,1.036133,10.009766,-32.592773,8.483887
809,-0.185059,-0.018066,1.031738,9.826660,-20.751953,-1.708984
810,-0.164551,-0.026367,1.025391,10.192871,-8.422852,-8.972168
811,-0.162109,-0.037598,1.016602,10.498047,0.061035,-17.395020
812,-0.186523,-0.033203,1.033203,14.404297,1.281738,-33.081055
813,-0.170410,-0.011230,1.063477,13.488770,-2.563477,-40.893555
814,-0.149902,-0.003906,1.103516,9.521484,-8.850098,-46.691895
815,-0.119141,-0.013672,1.058594,-3.295898,-16.723633,-57.312012
816,-0.128906,-0.012695,1.028320,-8.239746,-18.981934,-63.415527
817,-0.153809,-0.024414,0.997559,-13.183594,-20.263672,-72.082520
818,-0.101562,0.029297,1.049316,-23.803711,-23.254395,-93.017578
819,-0.063965,-0.053711,1.091309,-24.719238,-27.648926,-100.280762
820,-0.022949,-0.068359,1.042480,-24.047852,-26.367188,-104.919434
821,0.009277,-0.097656,0.982910,-28.076172,-18.676758,-105.468750
822,0.012695,-0.146484,0.904785,-35.644531,-8.728027,-111.267090
823,0.019043,-0.129395,0.886719,-33.386230,-11.596680,-114.196777
824,0.033691,-0.139648,0.916504,-30.212402,-19.958496,-117.858887
825,0.106445,-0.179199,0.916992,-29.846191,-35.583496,-128.601074
826,0.184570,-0.211426,0.940430,-33.325195,-36.682129,-130.798340
827,0.210449,-0.252441,0.858887,-37.963867,-22.216797,-126.342773
828,0.275879,-0.322266,0.866211,-35.888672,-14.648438,-117.004395
829,0.268555,-0.321289,0.865723,-35.156250,-11.535645,-118.041992
830,0.304688,-0.257812,0.875488,-33.325195,-13.183594,-115.417480
831,0.362793,-0.329102,0.959473,-41.198730,-18.371582,-111.511230
832,0.399414,-0.316895,0.916992,-50.354004,-16.296387,-109.985352
833,0.424805,-0.354492,0.905273,-56.030273,-12.817383,-106.628418
834,0.433594,-0.369629,0.848145,-42.480469,-15.014648,-100.341797
835,0.415527,-0.386719,0.855469,-30.700684,-27.770996,-96.984863
836,0.456543,-0.344727,0.826172,-25.207520,-43.640137,-98.022461
837,0.533691,-0.345215,0.810547,-24.902344,-57.373047,-93.078613
838,0.645508,-0.442383,0.761719,-21.789551,-74.645996,-77.087402
839,0.925781,-0.613281,0.880859,-22.583008,-80.993652,-62.438965
840,0.966797,-0.681152,0.911133,-23.925781,-82.702637,-45.166016
841,0.937012,-0.648438,0.769043,-10.864258,-46.936035,-9.887695
842,0.855469,-0.617676,0.752441,1.464844,-18.554688,4.089355
843,0.799316,-0.555176,0.803711,13.305664,4.211426,14.038086
844,0.758301,-0.493164,0.902832,20.385742,16.357422,24.475098
845,0.674805,-0.470215,0.891113,19.836426,28.930664,43.945312
846,0.628906,-0.452148,0.819336,23.864746,37.292480,52.124023
847,0.583496,-0.426270,0.794922,30.700684,44.616699,59.265137
848,0.521484,-0.374512,0.864746,39.611816,45.349121,73.120117
849,0.471680,-0.357910,0.870117,41.992188,39.489746,80.444336
850,0.443359,-0.318848,0.874512,40.954590,35.034180,87.768555
851,0.405273,-0.296387,0.878418,34.912109,32.531738,94.604492
852,0.358887,-0.242188,0.936035,25.451660,26.184082,105.041504
853,0.338867,-0.239746,0.994629,19.226074,21.057129,111.572266
854,0.309570,-0.244141,0.971680,12.329102,17.761230,116.333008
855,0.234375,-0.249512,0.895996,11.535645,24.353027,121.032715
856,0.188965,-0.250488,0.841309,18.737793,30.395508,119.323730
857,0.181641,-0.224121,0.823242,31.372070,34.423828,119.384766
858,0.153320,-0.229492,0.861328,40.344238,36.682129,118.652344
859,0.154297,-0.194336,0.969727,35.461426,36.254883,117.614746
860,0.125977,-0.227051,0.918945,33.142090,37.048340,114.135742
861,0.095703,-0.218262,0.866211,37.109375,42.419434,109.069824
862,0.069336,-0.197266,0.849121,45.166016,48.095703,102.111816
863,0.039062,-0.157715,0.913086,61.096191,49.133301,90.209961
864,0.047363,-0.131348,0.958984,62.194824,48.767090,87.768555
865,0.018555,-0.144531,0.958008,59.082031,49.072266,86.120605
866,-0.023438,-0.083008,0.956543,47.851562,49.682617,86.303711
867,-0.064941,-0.079590,0.979004,37.414551,45.104980,85.693359
868,-0.095703,-0.040039,1.015625,29.724121,35.766602,83.068848
869,-0.123047,-0.002930,1.066895,20.812988,22.583008,79.895020
870,-0.196777,0.032227,1.029785,7.751465,-1.525879,68.847656
871,-0.234863,0.075195,0.981445,5.371094,-9.155273,61.096191
872,-0.285645,0.090820,0.935547,18.127441,-26.794434,35.217285
873,-0.401367,0.153320,0.923828,25.146484,-37.597656,15.502930
874,-0.428223,0.153809,1.001465,20.080566,-45.959473,-8.972168
875,-0.277832,0.124512,1.187012,-7.507324,-54.016113,-52.001953
876,-0.195312,0.046387,1.083496,-4.516602,-50.659180,-70.739746
877,-0.081055,0.162109,1.143066,-2.319336,-41.564941,-75.378418
878,-0.068848,-0.013184,1.115723,-30.700684,-23.437500,-76.965332
879,-0.044922,-0.038574,1.028320,-33.874512,-17.395020,-82.092285
880,-0.037598,-0.034180,0.963867,-29.724121,-12.573242,-83.618164
881,-0.008789,-0.122070,0.924316,-28.625488,-6.469727,-92.529297
882,0.013672,-0.128906,0.916504,-26.367188,-7.629395,-100.341797
883,0.034180,-0.142578,0.925781,-14.160156,-17.333984,-116.760254
884,0.116211,-0.143555,0.947266,-10.559082,-23.193359,-122.619629
885,0.158691,-0.139160,0.961914,-12.756348,-27.038574,-125.732422
886,0.209961,-0.161133,0.976074,-18.493652,-29.052734,-124.877930
887,0.286133,-0.184082,0.937012,-22.644043,-14.282227,-115.905762
888,0.291016,-0.261230,0.944824,-21.911621,-3.784180,-106.811523
889,0.257812,-0.263184,0.920898,-26.550293,2.807617,-108.520508
890,0.234863,-0.246094,0.871094,-24.047852,2.319336,-109.802246
891,0.223633,-0.229980,0.823730,-18.310547,1.220703,-113.647461
892,0.247070,-0.208984,0.903809,-5.859375,-8.056641,-119.323730
893,0.256836,-0.186523,0.927734,-2.990723,-13.366699,-121.765137
894,0.283691,-0.172363,0.966797,-0.854492,-19.042969,-120.178223
895,0.314941,-0.163086,0.982422,-1.831055,-24.230957,-117.248535
896,0.399414,-0.211426,1.045898,-21.911621,-41.870117,-104.309082
897,0.455566,-0.221191,1.007324,-40.039062,-48.583984,-91.613770
898,0.500977,-0.360352,0.855957,-73.608398,-37.658691,-71.228027
899,0.541504,-0.372559,0.816895,-77.148438,-29.785156,-68.420410
900,0.594727,-0.372070,0.830566,-73.242188,-29.174805,-67.993164
901,0.667969,-0.401855,0.836426,-63.659668,-36.132812,-66.894531
902,0.823730,-0.509766,0.864258,-35.888672,-54.260254,-52.307129
903,0.848145,-0.556152,0.858887,-25.512695,-52.978516,-39.978027
904,0.851074,-0.539551,0.787109,-11.047363,-20.141602,-5.981445
905,0.832031,-0.529297,0.827148,-6.408691,-0.183105,12.329102
906,0.796387,-0.514648,0.903320,-5.126953,12.695312,28.808594
907,0.754395,-0.497559,0.933105,-1.098633,17.578125,43.395996
908,0.655273,-0.420410,0.893066,14.709473,24.414062,64.086914
909,0.597168,-0.392090,0.870605,25.024414,31.188965,71.716309
910,0.541992,-0.360840,0.862793,36.010742,38.635254,77.636719
911,0.465332,-0.277344,0.922852,50.903320,47.119141,86.975098
912,0.426758,-0.263184,0.939453,51.269531,46.325684,92.346191
913,0.396973,-0.255859,0.934082,51.452637,43.762207,97.351074
914,0.328125,-0.229980,0.926758,52.551270,40.466309,107.604980
915,0.300781,-0.204590,0.907227,53.894043,42.663574,112.060547
916,0.266602,-0.186523,0.909668,56.457520,47.668457,115.844727
917,0.219727,-0.165527,0.902832,58.349609,53.894043,117.675781
918,0.162598,-0.131348,0.882324,67.077637,63.110352,116.210938
919,0.122559,-0.109375,0.900391,72.937012,66.650391,114.562988
920,0.057617,-0.034180,0.944824,71.960449,66.101074,108.398438
921,0.036621,-0.012207,0.977051,64.758301,64.270020,108.581543
922,0.029785,-0.026367,0.961914,55.358887,63.171387,108.337402
923,0.063477,-0.016113,0.976562,50.598145,63.903809,111.206055
924,0.051758,0.040527,0.978027,41.503906,62.927246,119.995117
925,-0.050781,0.026855,0.967285,29.602051,63.171387,124.511719
926,-0.136719,0.017090,0.934570,17.395020,62.133789,124.450684
927,-0.198730,0.047363,0.952148,-2.868652,48.278809,105.957031
928,-0.257812,0.059082,0.988281,-2.624512,35.339355,91.308594
929,-0.266113,0.051758,0.985352,5.065918,23.986816,73.547363
930,-0.253418,0.045410,0.991699,12.756348,16.662598,54.382324
931,-0.212891,0.089355,1.054199,20.935059,7.324219,28.381348
932,-0.211914,0.103027,1.091309,7.507324,2.319336,23.071289
933,-0.240723,0.081543,1.085938,-10.681152,-2.807617,18.493652
934,-0.261719,0.093262,1.044434,-25.146484,-7.446289,12.512207
935,-0.253906,0.034180,0.979004,-28.320312,-13.244629,-3.906250
936,-0.245605,0.032715,0.939941,-22.705078,-12.939453,-15.258789
937,-0.241211,0.028809,0.928223,-15.075684,-11.230469,-26.550293
938,-0.131348,0.007812,1.047363,-1.281738,-16.784668,-45.654297
939,-0.103027,-0.023926,1.045898,-0.671387,-19.042969,-49.621582
940,-0.086914,-0.022949,1.006348,-4.577637,-14.526367,-51.513672
941,-0.071289,-0.000488,1.023926,-13.183594,-9.460449,-49.865723
942,-0.141602,-0.039551,1.016602,-37.841797,-18.432617,-50.231934
943,-0.162598,-0.032227,0.966797,-44.982910,-28.320312,-55.725098
944,-0.154297,-0.045898,0.904785,-45.288086,-53.039551,-77.087402
945,-0.064453,-0.062012,0.934082,-44.921875,-61.767578,-87.341309
946,0.009766,-0.112793,0.969727,-44.250488,-69.091797,-95.642090
947,0.107910,-0.160156,0.926758,-38.757324,-74.340820,-99.182129
948,0.109863,-0.173828,0.905762,-37.109375,-70.129395,-98.449707
949,0.145020,-0.151855,0.954590,-42.724609,-64.880371,-95.581055
950,0.242188,-0.258301,0.984863,-61.767578,-54.016113,-79.467773
951,0.247559,-0.324707,0.920410,-62.500000,-42.175293,-75.805664
952,0.270996,-0.258789,0.852051,-55.480957,-19.226074,-73.120117
953,0.186035,-0.354004,0.866211,-29.724121,6.103516,-74.584961
954,0.143066,-0.290527,0.827148,-14.831543,5.004883,-86.791992
955,0.134277,-0.208984,0.793945,1.708984,0.061035,-97.045898
956,0.253906,-0.208008,1.030273,5.493164,-18.432617,-103.088379
957,0.298340,-0.210938,1.036621,-9.155273,-25.512695,-101.562500
958,0.366211,-0.247070,1.040039,-48.828125,-35.827637,-88.500977
959,0.364258,-0.280762,0.997559,-61.706543,-44.921875,-81.848145
960,0.407227,-0.300293,0.904785,-72.265625,-62.561035,-72.998047
961,0.456055,-0.353516,0.919434,-73.791504,-66.223145,-66.162109
962,0.536133,-0.399902,0.928223,-72.692871,-65.063477,-57.312012
963,0.618164,-0.467285,0.925781,-68.847656,-59.875488,-43.579102
964,0.707520,-0.600098,0.733887,-39.611816,-31.616211,-12.573242
965,0.701172,-0.646973,0.730469,-19.897461,-12.207031,1.586914
966,0.706055,-0.653809,0.769043,-7.446289,2.502441,11.596680
967,0.700684,-0.647461,0.790039,-0.732422,14.221191,21.057129
968,0.687500,-0.628418,0.714355,20.080566,42.236328,35.766602
969,0.672852,-0.591309,0.731934,28.869629,56.152344,40.466309
970,0.678711,-0.534668,0.785156,34.667969,63.720703,46.508789
971,0.699707,-0.507812,0.878418,39.001465,62.622070,55.664062
972,0.669434,-0.493164,0.924805,38.635254,46.813965,86.181641
973,0.634766,-0.478027,0.881836,32.104492,43.029785,104.003906
974,0.564453,-0.472656,0.846191,30.334473,41.198730,120.056152
975,0.465820,-0.430176,0.844238,27.709961,41.137695,144.958496
976,0.405273,-0.371582,0.822754,28.442383,42.236328,153.869629
977,0.328613,-0.269043,0.837891,34.423828,52.001953,168.945312
978,0.264160,-0.196777,0.877441,34.606934,56.213379,177.062988
979,0.232910,-0.130859,0.938965,26.672363,57.922363,184.631348
980,0.165039,-0.114746,0.977539,9.399414,49.682617,195.434570
981,0.016602,-0.094727,0.907715,2.563477,43.457031,194.519043
982,-0.057617,-0.125000,0.775879,6.286621,42.846680,188.659668
983,-0.169434,-0.086914,0.702148,50.659180,49.133301,161.865234
984,-0.200684,0.016113,0.866699,67.260742,44.250488,150.817871
985,-0.212402,0.075195,1.057617,60.180664,28.991699,141.784668
986,-0.237793,0.077637,1.207520,19.287109,-13.122559,125.000000
987,-0.244141,0.056152,1.296387,-6.408691,-27.038574,115.600586
988,-0.270020,0.026855,1.262695,-31.127930,-37.902832,103.759766
989,-0.271973,0.021484,1.136230,-47.485352,-42.480469,89.233398
990,-0.322754,-0.027832,1.032715,-53.100586,-45.837402,55.236816
991,-0.313477,-0.021973,0.923828,-47.119141,-33.142090,32.836914
992,-0.298828,-0.001465,1.016113,-42.968750,-7.507324,12.878418
993,-0.262207,-0.039062,1.082520,-33.325195,13.244629,-4.272461
994,-0.187988,-0.082031,1.084961,0.488281,38.208008,-27.770996
995,-0.164062,-0.066406,1.112305,-1.953125,47.668457,-34.118652
996,-0.165527,-0.080078,1.190918,-18.615723,49.865723,-34.790039
997,-0.170410,-0.151855,1.133789,-53.100586,23.071289,-33.325195
998,-0.140137,-0.156250,1.088379,-73.547363,8.056641,-32.958984
999,-0.128906,-0.203613,0.948730,-92.468262,0.122070,-31.127930
1000,-0.122070,-0.309082,0.880859,-94.604492,9.094238,-32.836914
1001,-0.121582,-0.333984,0.897461,-85.632324,4.089355,-38.146973
1002,-0.135742,-0.330078,0.851074,-78.552246,-0.244141,-45.532227
1003,-0.090820,-0.352051,0.886230,-67.932129,-0.122070,-55.053711
1004,-0.049316,-0.371582,0.854004,-70.678711,-5.676270,-54.992676
1005,-0.051270,-0.414062,0.842773,-81.237793,-8.544922,-53.649902
1006,-0.031250,-0.422852,0.929688,-114.624023,-27.465820,-51.025391
1007,-0.050781,-0.445801,0.874023,-123.168945,-43.457031,-49.865723
1008,0.045898,-0.496094,0.789551,-120.483398,-50.903320,-47.668457
1009,0.078125,-0.568848,0.738770,-100.524902,-35.888672,-42.053223
1010,0.125488,-0.560547,0.603027,-82.275391,-18.310547,-40.954590
1011,0.163086,-0.667480,0.546387,-62.683105,27.099609,-29.785156
1012,0.043457,-0.598145,0.896484,-38.940430,71.899414,-33.264160
1013,0.106934,-0.623047,0.908203,-23.986816,56.396484,-30.700684
1014,0.375488,-0.762695,0.952637,-11.108398,29.663086,-16.296387
1015,0.359863,-0.844238,0.797852,-14.526367,11.474609,2.807617
1016,0.184082,-0.748047,0.789551,-48.034668,-2.868652,11.718750
1017,0.027832,-0.703125,0.843750,-24.230957,-8.422852,13.854980
1018,-0.007324,-0.657715,0.810059,-19.653320,-14.221191,11.352539
1019,0.005859,-0.648926,0.786133,-8.605957,-4.455566,-0.061035
1020,0.015137,-0.630371,0.808594,2.807617,-1.220703,-2.319336
1021,0.036621,-0.601074,0.830078,2.136230,0.610352,-0.610352
1022,0.007324,-0.583984,0.864258,-25.390625,12.084961,6.225586
1023,0.005859,-0.599609,0.851562,-41.870117,21.301270,7.690430
1024,0.007812,-0.654297,0.857910,-43.395996,33.142090,8.117676
1025,-0.005859,-0.677734,0.877930,-29.907227,29.785156,8.483887
1026,-0.051758,-0.684570,0.842773,-16.113281,21.911621,6.896973
1027,-0.017090,-0.650879,0.787109,-8.117676,12.573242,5.493164
1028,-0.018555,-0.662598,0.723145,-2.197266,2.197266,4.028320
1029,-0.014160,-0.655762,0.734375,-2.075195,-1.464844,4.211426
1030,0.000488,-0.639648,0.756836,-4.821777,-5.126953,5.187988
1031,-0.022461,-0.675781,0.710938,-36.621094,-3.417969,3.784180
1032,-0.048828,-0.678711,0.646973,-47.851562,-7.812500,0.671387
1033,-0.051758,-0.677246,0.615234,-36.804199,-16.479492,0.793457
1034,-0.049316,-0.673828,0.576660,-8.117676,-29.357910,1.281738
1035,-0.020508,-0.649902,0.451660,4.760742,-29.357910,1.464844
1036,-0.009277,-0.659180,0.441406,16.296387,-26.000977,1.464844
1037,-0.004883,-0.656250,0.513184,14.892578,-19.653320,2.746582
1038,0.005859,-0.675293,0.577148,3.662109,-12.878418,4.028320
1039,-0.024414,-0.721191,0.618164,-9.643555,0.549316,2.441406
1040,-0.037598,-0.699219,0.646973,-5.310059,6.591797,-0.305176
1041,-0.011230,-0.694336,0.690430,25.512695,6.225586,-2.685547
1042,0.004395,-0.690918,0.745117,37.048340,4.333496,-2.990723
1043,0.026855,-0.663574,0.801758,38.269043,3.173828,-2.502441
1044,0.037109,-0.657227,0.860840,35.522461,2.685547,-0.671387
1045,-0.005371,-0.643555,0.881348,32.714844,-0.488281,0.976562
1046,-0.012207,-0.631836,0.887695,28.625488,-0.488281,0.549316
1047,-0.010254,-0.636719,0.854004,26.550293,-1.220703,-0.122070
1048,0.058105,-0.689941,0.895508,37.902832,-8.422852,0.915527
1049,0.060547,-0.745117,0.819336,44.433594,-13.000488,0.122070
1050,0.058594,-0.738281,0.695801,57.800293,-11.840820,-1.281738
1051,0.087402,-0.709961,0.597656,76.721191,-3.906250,-0.732422
1052,0.175781,-0.743164,0.733887,118.774414,20.324707,7.995605
1053,0.111816,-0.826660,0.812012,134.582520,24.597168,4.699707
1054,0.254395,-0.589844,0.778809,150.024414,29.479980,-11.596680
1055,0.440918,-0.573730,0.675293,175.781250,43.579102,22.216797
1056,0.206055,-0.645020,0.897949,197.937012,40.222168,57.373047
1057,0.150879,-0.509766,0.741211,174.499512,47.485352,65.490723
1058,-0.078613,-0.335449,0.902832,126.953125,68.237305,69.580078
1059,-0.166992,-0.236816,1.037109,108.520508,65.063477,64.819336
1060,-0.279785,-0.175781,1.069824,92.407227,58.166504,53.405762
1061,-0.382324,-0.101074,1.027344,82.702637,54.016113,41.198730
1062,-0.507324,0.061035,1.015137,36.926270,46.142578,22.155762
1063,-0.533691,0.095703,1.022949,2.929688,37.292480,12.512207
1064,-0.524414,0.094238,1.040527,-21.911621,21.545410,5.187988
1065,-0.500977,0.110840,1.075684,-55.480957,-25.573730,0.183105
1066,-0.461426,0.074707,1.139160,-84.045410,-47.363281,-0.915527
1067,-0.410156,-0.022461,1.119629,-119.140625,-62.316895,-4.211426
1068,-0.258789,-0.204590,0.996582,-134.338379,-78.002930,-14.404297
1069,-0.212891,-0.305176,0.946777,-114.013672,-85.754395,-18.310547
1070,-0.167480,-0.359863,0.890625,-90.881348,-89.416504,-23.559570
1071,-0.066406,-0.482910,0.767578,-64.453125,-72.448730,-39.367676
1072,0.371094,-0.515625,0.556152,-49.438477,-47.607422,-31.616211
1073,0.358398,-0.930176,0.886230,-32.470703,-0.183105,16.235352
1074,0.270020,-0.833984,0.949707,-30.761719,-13.671875,28.686523
1075,0.059570,-0.795410,0.905762,-29.479980,-24.536133,31.921387
1076,-0.017090,-0.616699,0.837891,-41.442871,-26.123047,17.639160
1077,-0.014160,-0.581055,0.773438,-45.227051,-25.939941,4.638672
1078,0.035156,-0.573730,0.723633,-18.066406,-31.433105,-1.831055
1079,0.010742,-0.583496,0.735840,11.596680,-17.456055,-1.708984
1080,0.016602,-0.367188,0.968750,20.629883,-32.653809,-1.037598
1081,-0.016602,-0.407715,0.981934,-1.892090,-40.344238,6.958008
1082,-0.018066,-0.398438,0.959473,-50.537109,-48.461914,19.836426
1083,-0.038086,-0.462891,0.901855,-67.016602,-48.950195,23.010254
1084,-0.051270,-0.487793,0.873535,-70.739746,-47.729492,19.836426
1085,-0.030762,-0.468262,0.853027,-64.392090,-42.541504,17.578125
1086,-0.001465,-0.498535,0.886230,-51.757812,-37.597656,16.662598
1087,0.031738,-0.541016,0.902832,-50.964355,-37.292480,17.944336
1088,0.163086,-0.574707,0.971191,-49.804688,-74.340820,29.479980
1089,0.127930,-0.542969,0.929199,-74.829102,-74.707031,30.273438
1090,-0.001465,-0.513672,0.866699,-105.651855,-66.101074,29.724121
1091,-0.009766,-0.551270,0.730469,-118.225098,-56.762695,30.273438
1092,0.016113,-0.803711,0.713379,-88.500977,-47.241211,20.019531
1093,0.092285,-0.853027,0.621094,-64.697266,-50.842285,10.986328
1094,0.116211,-0.704102,0.682617,-19.775391,-35.156250,-7.263184
1095,0.164551,-0.633789,0.496094,-30.517578,-16.784668,-9.033203
1096,0.158691,-0.607910,0.534180,-18.066406,7.385254,-7.995605
1097,0.147949,-0.719727,0.796387,-15.625000,27.526855,-0.427246
1098,0.045898,-0.732422,0.884766,-5.493164,21.972656,-1.342773
1099,0.023438,-0.660645,0.893066,12.023926,9.033203,-2.502441
1100,0.064453,-0.630371,0.873535,15.686035,3.173828,-1.403809
1101,0.089355,-0.698242,0.793945,3.234863,6.958008,-1.037598
1102,0.090820,-0.697266,0.713867,-14.404297,21.301270,-6.042480
