order,ax,ay,az,gx,gy,gz
0,-0.146484,-0.576660,0.599609,35.278320,1.159668,-26.672363
1,-0.069824,-0.637207,0.488770,38.330078,34.790039,-16.845703
2,-0.098633,-0.664062,0.588379,45.654297,45.104980,-13.977051
3,-0.123047,-0.667480,0.680664,41.564941,51.147461,-14.282227
4,-0.143066,-0.663086,0.775391,9.521484,60.546875,-17.761230
5,-0.146484,-0.688965,0.777344,-3.906250,63.354492,-19.348145
6,-0.141113,-0.719238,0.777832,-7.385254,63.903809,-22.460938
7,-0.126953,-0.719238,0.781250,-3.601074,61.645508,-25.817871
8,-0.093750,-0.712402,0.725098,19.531250,55.664062,-33.996582
9,-0.086426,-0.659668,0.755859,35.278320,55.236816,-36.804199
10,-0.114746,-0.573242,0.886230,47.729492,54.260254,-38.574219
11,-0.116699,-0.532715,0.948730,46.020508,51.330566,-36.376953
12,-0.118652,-0.530762,0.977051,39.916992,46.997070,-31.738281
13,-0.125977,-0.556152,0.966309,36.010742,42.175293,-27.648926
14,-0.120605,-0.512695,0.979980,26.733398,32.409668,-21.972656
15,-0.123535,-0.499023,1.026855,14.648438,27.648926,-18.127441
16,-0.153809,-0.579102,1.033203,-3.906250,24.291992,-17.883301
17,-0.155273,-0.749023,0.977051,-20.263672,19.897461,-33.264160
18,-0.188477,-0.772461,0.958496,-10.131836,13.977051,-40.344238
19,-0.240234,-0.683105,1.010254,1.464844,2.990723,-47.180176
20,-0.210449,-0.463379,1.206543,-15.869141,-31.921387,-47.485352
21,-0.268066,-0.655762,1.164062,-36.132812,-48.339844,-46.630859
22,-0.239746,-0.890137,1.108887,-51.818848,-62.316895,-58.288574
23,-0.374023,-1.270996,1.138672,-70.800781,-66.284180,-112.792969
24,-0.476562,-1.171387,1.162109,-72.265625,-73.974609,-159.423828
25,-0.553711,-1.023438,1.103516,-61.401367,-90.698242,-208.923340
26,-0.160645,-0.521484,1.155762,-2.014160,-168.029785,-237.121582
27,-0.119141,-0.523926,0.973145,27.770996,-206.970215,-217.651367
28,-0.168945,-0.601562,0.769043,61.340332,-231.323242,-203.125000
29,0.023926,-0.444336,0.334961,117.309570,-228.759766,-194.274902
30,0.110352,-0.412109,0.357910,153.381348,-219.970703,-176.696777
31,0.124512,-0.306641,0.469727,167.419434,-210.327148,-158.874512
32,0.128418,-0.259766,0.430664,125.000000,-173.095703,-142.944336
33,0.185547,-0.223633,0.329590,86.303711,-147.216797,-141.113281
34,0.300781,-0.093262,0.218262,68.725586,-133.666992,-134.948730
35,0.428711,-0.219727,0.000000,46.081543,-91.796875,-118.835449
36,0.471680,-0.329590,-0.315430,54.077148,-16.845703,-118.408203
37,0.344238,-0.289551,-0.360352,59.631348,91.491699,-144.897461
38,0.500977,-0.088867,0.337891,65.307617,171.813965,-170.166016
39,0.354492,0.130371,1.166504,2.258301,122.497559,-176.696777
40,0.313477,0.189453,1.091797,-32.226562,101.379395,-172.668457
41,0.288574,0.260742,0.971191,-46.325684,86.669922,-162.231445
42,0.268555,0.313477,0.960449,-39.367676,67.382812,-117.004395
43,0.266113,0.248047,1.015625,-54.077148,62.683105,-91.674805
44,0.268066,0.123047,1.026855,-75.622559,55.114746,-77.575684
45,0.301270,-0.082520,0.865234,-67.626953,48.889160,-76.110840
46,0.275879,-0.291016,0.838867,33.630371,39.001465,-112.548828
47,0.200684,-0.310059,1.052246,63.903809,30.944824,-145.080566
48,0.041016,-0.337402,1.269531,62.561035,22.766113,-193.664551
49,0.062988,-0.130859,1.338379,-56.518555,31.372070,-313.903809
50,0.144043,0.016113,1.086426,-122.863770,57.800293,-349.243164
51,0.194336,0.085449,0.742188,-142.395020,88.378906,-362.854004
52,0.219238,0.215820,0.249023,-91.247559,117.004395,-359.008789
53,0.060547,0.462402,0.477051,78.674316,187.744141,-282.043457
54,-0.032715,0.388672,0.960449,91.003418,203.552246,-263.061523
55,-0.022949,0.265137,1.237305,50.659180,216.491699,-265.014648
56,0.146973,0.405762,1.337891,26.000977,201.904297,-293.762207
57,0.162598,0.471680,1.473145,25.634766,168.518066,-296.325684
58,0.185547,0.539062,1.493652,15.930176,128.601074,-291.870117
59,0.244141,0.585449,1.334961,5.676270,89.355469,-277.160645
60,0.506836,0.867676,1.297852,-16.174316,26.855469,-224.792480
61,0.535645,1.041504,1.476074,-67.260742,19.714355,-194.091797
62,0.304688,0.919922,1.421387,-104.675293,7.446289,-172.790527
63,0.149414,0.778809,1.364746,-104.370117,-24.597168,-157.714844
64,0.128906,0.531250,1.361816,-65.429688,-107.055664,-132.202148
65,0.185059,0.448242,1.294922,-70.739746,-143.615723,-124.572754
66,0.366211,0.465332,1.019043,-73.669434,-163.146973,-115.722656
67,0.770996,0.440918,0.777344,-31.616211,-151.794434,-95.031738
68,1.010254,0.525879,0.709961,-12.817383,-119.018555,-72.875977
69,1.140137,0.558105,0.646484,-0.244141,-78.430176,-32.592773
70,0.846191,0.295898,0.699219,24.475098,-45.166016,-9.826660
71,0.425293,0.079102,1.053223,48.156738,-28.625488,-76.538086
72,0.386719,0.167969,1.157715,30.578613,-44.982910,-114.257812
73,0.336914,0.232910,1.137695,-1.708984,-67.565918,-136.962891
74,0.368652,0.403320,1.066406,-100.280762,-88.684082,-162.353516
75,0.414551,0.410156,0.995605,-151.672363,-80.017090,-163.085938
76,0.382324,0.196777,0.796875,-225.952148,-40.649414,-170.410156
77,0.360352,0.045898,0.356934,-319.213867,139.831543,-223.083496
78,0.450684,0.113281,0.848633,-281.311035,213.500977,-242.553711
79,0.454102,0.283691,0.982910,-141.845703,168.701172,-215.454102
80,0.376953,0.270996,0.922363,-105.346680,162.109375,-177.185059
81,0.219238,0.170898,1.504395,-46.997070,80.139160,-80.627441
82,-0.561523,-0.083008,1.659180,-82.885742,36.315918,-73.181152
83,-0.842773,-0.216797,1.361328,-87.707520,-12.390137,-104.980469
84,-0.098633,0.330078,1.507324,-103.454590,-89.782715,-171.447754
85,0.265625,0.527832,1.404297,-165.649414,-106.933594,-150.024414
86,0.134766,0.438965,1.234863,-215.759277,-123.596191,-138.977051
87,-0.048828,0.291016,1.128906,-290.405273,-144.897461,-174.926758
88,-0.044922,0.146973,1.202637,-335.083008,-144.836426,-191.406250
89,-0.020996,-0.025879,1.077637,-376.403809,-136.779785,-210.205078
90,0.439941,-0.073242,0.290039,-368.347168,-66.589355,-247.497559
91,0.670898,-0.055664,0.059570,-290.466309,-20.446777,-234.619141
92,0.742188,-0.049805,0.142090,-199.768066,20.812988,-203.491211
93,0.647461,-0.111816,0.348145,-117.492676,45.532227,-162.902832
94,0.359863,-0.232910,0.638672,-23.254395,58.105469,-90.515137
95,0.293945,-0.215332,0.688477,-6.652832,63.659668,-64.514160
96,0.278320,-0.132324,0.731934,-9.826660,93.017578,-12.145996
97,0.229004,0.085449,0.647949,-8.056641,108.459473,25.939941
98,0.165039,0.131836,0.708496,-10.620117,118.225098,74.523926
99,0.058105,0.059570,0.618652,-16.296387,118.469238,126.647949
100,0.030762,-0.367188,0.604492,-9.521484,120.422363,184.875488
101,-0.005859,-0.708008,0.625000,4.516602,143.981934,142.395020
102,0.177734,-0.596680,1.295898,20.446777,143.127441,-11.230469
103,0.288574,-0.225098,1.029785,-24.414062,144.592285,-65.124512
104,-0.101562,-0.344727,0.453613,-128.417969,217.407227,-112.365723
105,-0.574219,-0.513184,0.355957,-277.343750,383.544922,-183.776855
106,-0.478516,-0.586426,0.630859,-265.136719,425.476074,-215.881348
107,-0.296875,-0.385742,1.349609,-244.689941,442.871094,-232.421875
108,0.260742,0.122559,3.507324,-225.708008,273.132324,-194.580078
109,0.315430,-0.429688,0.644531,-203.491211,145.019531,-139.343262
110,0.017578,-0.373047,1.089844,-191.772461,105.712891,-13.793945
111,-0.259766,-0.518066,0.793457,-192.687988,78.063965,35.644531
112,-0.516602,-0.565918,0.639648,-191.711426,65.551758,56.945801
113,-0.582520,-0.732422,0.592285,-185.913086,67.871094,42.785645
114,-0.609375,-0.963867,0.501465,-166.625977,77.941895,20.080566
115,-0.587891,-0.999023,0.509277,-135.559082,86.669922,6.469727
116,-0.858398,-0.835938,0.475586,-42.785645,48.522949,53.771973
117,-0.988770,-0.869629,0.577637,21.789551,-1.342773,75.256348
118,-0.897949,-0.662109,0.752441,97.229004,-70.190430,90.332031
119,-0.609375,-0.389648,0.760742,161.071777,-192.382812,157.714844
120,-0.427246,-0.210938,0.702637,168.273926,-196.411133,188.903809
121,-0.360352,-0.110352,0.795898,140.625000,-153.076172,212.890625
122,-0.561523,-0.183594,1.147949,-18.005371,57.128906,181.274414
123,-0.683105,-0.158691,1.075684,-76.721191,150.939941,156.616211
124,-0.844727,0.006836,1.442383,-108.276367,140.930176,176.818848
125,-0.976562,-0.001465,1.429688,-131.347656,77.453613,217.651367
126,-0.876465,0.037109,1.441406,-134.094238,-42.297363,311.340332
127,-0.864746,-0.114746,1.322266,-144.897461,-50.476074,346.679688
128,-0.856934,-0.162109,1.313965,-155.883789,-50.842285,369.995117
129,-0.762695,-0.408691,1.231445,-165.039062,-71.105957,361.389160
130,-0.520996,-0.583496,1.278320,-145.629883,-90.515137,358.581543
131,-0.441406,-1.310547,0.909668,-117.431641,-95.092773,345.825195
132,-0.490234,-1.594727,0.894531,-95.825195,-72.753906,290.771484
133,-0.077637,-1.502441,0.827637,-22.644043,-103.149414,265.625000
134,-0.036133,-1.441406,0.434570,48.278809,-81.176758,190.246582
135,0.020020,-1.328613,0.421875,57.128906,-46.752930,162.414551
136,0.014648,-1.372559,0.435059,26.794434,2.990723,62.133789
137,-0.274902,-2.100098,-0.057129,11.413574,51.147461,-27.709961
138,-0.290039,-2.196289,-0.279785,8.422852,97.839355,-121.215820
139,-0.373535,-1.724609,-0.169434,21.850586,126.220703,-180.908203
140,-0.813965,-0.695312,0.108887,64.086914,133.361816,-184.448242
141,-0.886230,-0.312012,0.268066,48.645020,128.784180,-156.677246
142,-0.975098,-0.130859,0.145996,20.385742,128.356934,-127.319336
143,-0.880859,-0.120117,0.156738,-18.554688,141.052246,-93.017578
144,-0.769043,-0.414062,0.137695,-48.889160,151.977539,-80.627441
145,-0.700195,-0.774414,0.036133,-78.918457,166.442871,-98.205566
146,-0.621582,-0.878906,-0.047363,-90.637207,190.185547,-133.850098
147,-0.631836,-0.938477,-0.108887,-82.458496,223.510742,-168.212891
148,-0.531250,-0.995605,-0.256348,-26.062012,250.610352,-183.044434
149,-0.232422,-0.858398,-0.402344,28.015137,278.320312,-170.959473
150,-0.566895,-0.880859,-0.065918,88.989258,301.696777,-168.334961
151,-0.806641,-0.769043,0.328613,145.141602,296.569824,-193.786621
152,-1.319336,-0.679688,0.560547,192.687988,252.502441,-178.222656
153,-1.583496,-0.400391,0.800781,189.086914,198.303223,-158.691406
154,-1.369141,-0.114258,0.689941,107.788086,59.143066,-96.130371
155,-0.997559,-0.086426,0.164062,37.841797,55.725098,-70.434570
156,-0.805176,-0.309082,-0.086426,3.234863,74.768066,-61.035156
157,-0.793457,-0.436523,-0.226074,-13.061523,78.918457,-56.884766
158,-0.774902,-0.671875,-0.354004,-13.305664,79.223633,-65.734863
159,-0.682129,-0.765137,-0.413574,-0.305176,87.463379,-70.068359
160,-0.660645,-1.083008,-0.562500,21.118164,108.642578,-81.787109
161,-0.579590,-1.092773,-0.386719,56.457520,157.104492,-134.399414
162,-0.625488,-0.988281,-0.212891,64.453125,165.283203,-164.855957
163,-0.701172,-0.869629,-0.136230,70.068359,162.658691,-179.992676
164,-0.713867,-0.515137,0.030762,116.271973,136.047363,-145.263672
165,-0.654297,-0.387695,0.120605,131.469727,111.755371,-111.877441
166,-0.633301,-0.388672,0.185547,128.662109,91.369629,-75.927734
167,-0.491211,-0.608398,0.293945,93.566895,82.031250,-44.372559
168,-0.427246,-0.822266,0.362305,60.302734,82.519531,-50.903320
169,-0.407227,-1.003906,0.334961,31.066895,88.378906,-74.645996
170,-0.348633,-1.030762,0.308594,7.995605,95.886230,-107.543945
171,-0.206055,-0.883789,-0.065918,6.774902,114.440918,-104.797363
172,-0.239258,-0.893066,-0.017090,41.809082,112.670898,-53.283691
173,-0.206055,-0.966797,-0.043457,93.261719,85.388184,-1.953125
174,-0.661621,-1.241211,0.027832,137.451172,42.053223,1.647949
175,-0.583496,-1.225586,0.061523,139.587402,55.541992,-28.686523
176,-0.510742,-1.147461,0.148438,143.005371,72.631836,-52.612305
177,-0.465332,-1.061523,0.221191,126.586914,87.097168,-63.171387
178,-0.710449,-1.136230,0.138184,161.132812,90.148926,-92.224121
179,-0.542480,-0.962891,0.353027,172.912598,61.645508,-114.257812
180,-0.113281,-0.460449,0.265625,147.583008,45.654297,-84.106445
181,-0.181641,-0.440430,0.431641,128.479004,54.260254,-59.082031
182,-0.405273,-0.661621,0.582520,69.885254,78.186035,-58.410645
183,-0.398438,-0.616699,0.740234,-31.555176,116.516113,-91.918945
184,-0.342773,-0.698730,0.753418,-73.120117,118.347168,-106.872559
185,-0.240234,-0.770996,0.795410,-109.985352,109.130859,-113.220215
186,-0.016602,-0.739746,0.627441,-120.849609,84.716797,-46.997070
187,-0.010254,-0.872070,0.426758,-96.557617,86.364746,3.356934
188,-0.056641,-0.860840,0.419434,-71.838379,97.045898,38.696289
189,-0.067871,-0.878906,0.374512,-61.584473,115.722656,64.392090
190,-0.270996,-1.004395,0.438477,-5.310059,114.013672,42.968750
191,-0.269043,-0.900391,0.548828,23.132324,91.369629,41.625977
192,-0.515137,-1.002930,0.702637,10.742188,58.166504,23.376465
193,-0.476074,-0.919922,0.664062,-30.090332,32.775879,-31.372070
194,-0.252930,-0.797852,0.529297,-70.678711,43.151855,-37.780762
195,-0.110352,-0.759277,0.574707,-108.642578,60.180664,-23.620605
196,-0.073242,-0.864258,0.525879,-138.732910,75.256348,-4.699707
197,-0.139648,-1.106445,0.177734,-123.779297,64.514160,33.752441
198,-0.078125,-0.831055,1.083984,-104.309082,11.474609,54.077148
199,-0.152344,-0.885254,0.277832,-101.074219,-52.856445,94.604492
200,-0.386230,-1.009277,-0.170410,-71.166992,-11.474609,69.152832
201,-0.182129,-0.937012,-0.002930,-84.655762,20.263672,55.664062
202,-0.299316,-1.078613,-0.028809,-61.706543,10.437012,36.865234
203,-0.101562,-0.529785,0.416504,15.014648,-55.541992,11.779785
204,-0.153809,-0.558594,1.117676,88.928223,-176.513672,72.692871
205,-0.477051,-1.184082,0.416504,89.599609,-274.414062,85.083008
206,-0.622559,-1.021484,-0.808105,76.477051,-110.107422,22.705078
207,-0.381836,-0.556641,-0.198242,81.420898,-30.151367,14.831543
208,-0.172852,-0.242676,0.076660,82.824707,-28.869629,41.320801
209,-0.208984,-0.342285,0.140625,43.701172,-41.015625,116.333008
210,-0.142090,-0.654297,0.056641,13.305664,-26.489258,112.121582
211,-0.017090,-1.050781,-0.208496,-33.020020,-18.188477,83.068848
212,-0.054199,-1.045410,-0.610352,-52.856445,23.315430,54.748535
213,-0.436523,-0.997559,-0.049805,-36.010742,110.107422,40.405273
214,-0.577637,-1.032227,0.208008,-52.429199,109.558105,34.362793
215,-0.600098,-1.059082,0.361328,-78.186035,98.144531,22.644043
216,-0.397461,-1.112793,0.123535,-99.914551,73.730469,-4.028320
217,-0.387207,-1.091797,-0.094238,-83.190918,76.049805,-12.268066
218,-0.316895,-0.898438,-0.060547,-52.795410,62.561035,-11.047363
219,-0.252441,-0.670898,0.099121,-33.630371,55.847168,48.522949
220,-0.299316,-0.863770,0.019043,-40.161133,41.381836,94.848633
221,-0.358887,-1.044434,-0.045410,-35.400391,35.949707,102.050781
222,-0.331543,-1.051758,-0.083008,-34.851074,37.902832,86.303711
223,-0.512695,-0.968750,-0.221191,-41.564941,56.030273,57.373047
224,-0.599609,-0.871582,-0.229004,-42.053223,69.519043,47.180176
225,-0.691406,-0.742676,-0.145996,-43.640137,82.519531,44.982910
226,-0.756836,-0.509766,0.058105,-45.532227,56.884766,65.917969
227,-0.767578,-0.452148,0.152344,-55.908203,32.592773,84.960938
228,-0.836426,-0.917969,0.105469,-118.530273,-12.268066,84.472656
229,-0.940918,-1.184082,-0.083496,-164.062500,-16.723633,47.119141
230,-1.009766,-1.256348,-0.222656,-201.538086,-16.418457,3.173828
231,-1.069824,-1.234863,-0.271973,-214.294434,-19.897461,-26.977539
232,-1.298340,-1.132812,-0.300781,-119.812012,-46.630859,-18.188477
233,-1.291992,-1.103027,-0.277344,-63.720703,-55.664062,13.000488
234,-1.228027,-1.169922,-0.251465,-43.884277,-55.175781,36.621094
235,-0.858887,-1.125977,-0.356934,-53.588867,-29.479980,8.422852
236,-0.729492,-1.042480,-0.292480,-63.293457,-19.104004,-18.798828
237,-0.649414,-0.915527,-0.250977,-73.791504,-10.803223,-42.846680
238,-0.586914,-0.584473,-0.308594,-65.307617,12.695312,-69.213867
239,-0.580566,-0.365234,-0.290039,-50.109863,32.775879,-68.664551
240,-0.600586,-0.256836,-0.254395,-45.166016,47.668457,-57.617188
241,-0.655762,-0.132812,-0.177246,-45.104980,53.466797,-50.048828
242,-0.985352,0.035645,-0.322266,5.554199,29.785156,-26.245117
243,-1.694824,0.454590,-0.791992,-1.403809,67.504883,18.798828
244,-0.630859,-0.471191,0.141113,0.793457,37.597656,30.517578
245,-0.531250,-0.538574,-0.101074,-53.588867,0.061035,29.602051
246,-0.648926,-0.559082,-0.382812,-79.406738,-17.028809,39.611816
247,-0.626953,-0.741699,-0.526367,-96.923828,-37.414551,50.842285
248,-0.713379,-0.956055,-0.798340,-112.731934,-33.264160,47.485352
249,-0.488281,-0.871582,-0.847168,-86.547852,33.020020,13.000488
250,-0.530273,-0.788574,-0.615723,-68.847656,54.626465,7.690430
251,-0.513672,-0.726074,-0.473145,-45.654297,58.654785,-2.258301
252,-0.475098,-0.614746,-0.369141,-3.356934,53.405762,-20.385742
253,-0.449707,-0.458496,-0.276855,5.065918,47.546387,-26.184082
254,-0.491211,-0.383301,-0.240723,8.728027,40.344238,-31.433105
255,-0.449219,-0.309570,-0.197754,-1.464844,18.554688,-27.221680
256,-0.419434,-0.312988,-0.270020,-11.657715,7.751465,-18.615723
257,-0.402344,-0.370605,-0.438965,-15.319824,-3.173828,-7.873535
258,-0.374512,-0.400879,-0.511719,-4.150391,-7.507324,-5.737305
259,-0.360840,-0.436523,-0.595215,11.230469,-3.356934,-1.770020
260,-0.427734,-0.509766,-0.572754,29.113770,0.976562,3.479004
261,-0.496582,-0.573242,-0.507324,43.640137,4.272461,10.986328
262,-0.524414,-0.647949,-0.464355,48.461914,-1.281738,15.563965
263,-0.494141,-0.677734,-0.480469,38.635254,-7.263184,22.094727
264,-0.587891,-1.031738,-0.541016,16.235352,8.239746,24.291992
265,-0.703613,-1.264160,-0.854980,6.042480,15.502930,14.953613
266,-0.733398,-1.343750,-0.781250,-5.187988,14.465332,-1.464844
267,-0.721680,-1.192871,-0.669922,-16.052246,4.150391,-18.066406
268,-0.609863,-0.643066,-0.617188,-19.287109,7.934570,-19.226074
269,-0.698242,-0.715332,-0.555176,-8.056641,20.202637,-23.010254
270,-0.676758,-0.770508,-0.287598,-6.286621,26.245117,-9.094238
271,-0.881348,-0.808105,-0.214844,-6.652832,9.643555,1.098633
272,-0.960449,-0.739258,-0.155273,-6.958008,-7.141113,5.981445
273,-0.970215,-0.620117,-0.271973,-29.724121,-10.498047,15.563965
274,-0.849609,-0.690918,-0.278809,-36.071777,-1.525879,14.648438
275,-0.875488,-0.573730,-0.229492,-35.095215,11.169434,7.629395
276,-0.966309,-0.781738,-0.256836,-50.292969,24.169922,19.836426
277,-0.764648,-0.818359,-0.328613,-26.977539,26.611328,-12.634277
278,-0.675293,-0.721680,-0.457520,-12.329102,27.160645,-18.859863
279,-0.664551,-0.725098,-0.398926,14.648438,24.902344,-22.949219
280,-0.516602,-0.667480,-0.323242,19.226074,26.855469,-27.709961
281,-0.496582,-0.617188,-0.335938,18.615723,28.015137,-24.902344
282,-0.460938,-0.565430,-0.353516,17.883301,31.372070,-18.859863
283,-0.547363,-0.622070,-0.263184,16.296387,40.405273,-10.070801
284,-0.611816,-0.688477,-0.218262,9.887695,41.137695,-13.000488
285,-0.669922,-0.730469,-0.201172,-5.371094,28.442383,-21.850586
286,-0.671875,-0.720215,-0.191406,-13.916016,13.793945,-22.888184
287,-0.639648,-0.673828,-0.181152,-23.071289,-6.225586,-17.639160
288,-0.631348,-0.671387,-0.223633,-33.691406,-28.503418,-10.375977
289,-0.573730,-0.664551,-0.420410,-42.358398,-52.429199,0.793457
290,-0.563965,-0.631348,-0.553711,-43.823242,-44.006348,-0.671387
291,-0.533203,-0.670410,-0.542969,-27.648926,-38.757324,-3.234863
292,-0.480957,-0.581055,-0.609375,-6.835938,-31.555176,-7.324219
293,-0.409668,-0.534180,-0.645996,8.056641,-27.282715,0.427246
294,-0.384766,-0.533203,-0.642578,20.996094,-19.042969,8.117676
295,-0.351074,-0.502930,-0.642578,25.207520,-7.629395,15.502930
296,-0.351074,-0.478027,-0.567383,21.362305,5.310059,24.475098
297,-0.355957,-0.491211,-0.544922,10.864258,7.141113,23.864746
298,-0.354492,-0.500977,-0.534180,-0.488281,7.934570,21.972656
299,-0.470215,-0.524902,-0.490723,-25.573730,10.375977,22.827148
300,-0.542969,-0.558105,-0.512207,-36.071777,9.521484,23.864746
301,-0.557617,-0.575684,-0.531738,-42.541504,8.056641,22.888184
302,-0.514160,-0.653809,-0.523926,-45.227051,-0.122070,23.132324
303,-0.502930,-0.702148,-0.532227,-49.072266,-3.234863,21.057129
304,-0.522461,-0.729492,-0.566406,-47.851562,-5.554199,18.981934
305,-0.588379,-0.760742,-0.601562,-41.442871,-8.728027,16.174316
306,-0.712402,-0.760742,-0.762695,-15.014648,-8.239746,11.169434
307,-0.720215,-0.762207,-0.856445,0.610352,3.540039,5.310059
308,-0.710449,-0.795898,-0.904297,27.648926,36.621094,3.662109
309,-0.655762,-0.903320,-0.889160,42.114258,44.433594,3.234863
310,-0.614746,-0.937988,-0.859863,58.288574,44.921875,1.403809
311,-0.577148,-0.916504,-0.806641,61.584473,44.128418,-1.342773
312,-0.575195,-0.903320,-0.782227,50.537109,46.081543,-2.075195
313,-0.539551,-0.827148,-0.870117,-12.145996,64.697266,-3.723145
314,-0.517578,-0.775391,-0.939941,-34.423828,71.472168,2.075195
315,-0.562500,-0.800293,-0.874512,-50.231934,70.983887,0.305176
316,-0.627441,-0.842285,-0.731445,-93.383789,50.781250,-13.183594
317,-0.712891,-0.900391,-0.649414,-110.351562,37.292480,-19.226074
318,-0.900879,-1.010254,-0.606445,-129.699707,15.258789,-44.799805
319,-0.853027,-0.950195,-0.579590,-114.746094,8.239746,-54.504395
320,-0.685059,-0.813965,-0.507812,-101.196289,7.385254,-52.124023
321,-0.505371,-0.706055,-0.572266,-94.055176,20.935059,-39.550781
322,-0.543457,-0.523926,-0.491699,-73.242188,66.345215,-3.723145
323,-0.908691,-0.576660,-0.284180,-78.308105,74.218750,-9.582520
324,-1.208984,-0.582520,-0.117676,-98.632812,66.101074,-44.372559
325,-0.914062,-0.302246,-0.382812,-111.877441,37.231445,-106.445312
326,-0.804688,-0.434570,-0.720215,-83.374023,36.499023,-101.501465
327,-0.767090,-0.248535,-0.492676,-29.785156,32.958984,-81.115723
328,-0.701172,-0.454590,-0.215332,19.165039,15.502930,-23.925781
329,-0.569336,-0.535645,-0.302734,15.930176,1.037598,-6.286621
330,-0.274414,-0.443848,-0.346191,3.906250,-20.202637,31.799316
331,-0.367676,-0.527344,-0.341797,-15.014648,-27.587891,44.433594
332,-0.229492,-0.386719,-0.501465,-32.531738,-33.508301,42.053223
333,-0.096680,-0.335938,-0.578125,-30.639648,-31.127930,42.236328
334,0.015625,-0.233398,-0.607910,-14.709473,-31.677246,51.452637
335,0.046387,-0.241699,-0.604004,1.586914,-30.578613,62.255859
336,0.086914,-0.309082,-0.555664,9.521484,-29.052734,66.467285
337,0.120605,-0.336426,-0.607422,11.230469,-30.944824,57.495117
338,0.161621,-0.286133,-0.671875,28.564453,-32.470703,44.372559
339,0.063477,-0.196777,-0.661621,97.778320,-27.587891,13.854980
340,-0.059082,-0.205566,-0.531738,111.511230,-22.399902,6.286621
341,-0.028809,-0.116211,-0.400391,111.083984,-28.564453,10.375977
342,0.059082,-0.123535,-0.508789,106.079102,-43.518066,34.301758
343,-0.000977,-0.435059,-0.551758,81.359863,-44.982910,70.678711
344,-0.102051,-0.557617,-0.549316,53.955078,-40.283203,68.847656
345,-0.208984,-0.677246,-0.551270,28.930664,-39.062500,64.453125
346,-0.349121,-0.906250,-0.588379,15.441895,-43.090820,52.185059
347,-0.654785,-1.124512,-0.749023,75.012207,-65.979004,13.977051
348,-0.850586,-1.136719,-0.729492,111.877441,-69.702148,-1.281738
349,-0.864258,-1.232910,-0.848633,99.914551,-46.813965,-20.446777
350,-0.772461,-1.135254,-0.911621,77.697754,-1.525879,-54.626465
351,-0.702148,-1.055176,-0.807129,80.749512,-15.075684,-61.706543
352,-0.663574,-0.983398,-0.613770,70.739746,-46.508789,-66.894531
353,-0.464844,-0.605957,-0.547852,-0.549316,-109.802246,-68.664551
354,-0.382812,-0.467773,-0.667969,-28.259277,-113.098145,-58.776855
355,-0.401367,-0.419434,-0.809082,-33.630371,-99.426270,-41.259766
356,-0.508789,-0.406738,-0.936523,15.502930,-48.400879,21.423340
357,-0.724609,-0.579590,-0.937012,53.161621,-15.380859,47.302246
358,-1.007812,-0.789551,-0.524902,72.814941,0.671387,52.124023
359,-1.362305,-0.858887,-0.094238,56.274414,-49.621582,27.832031
360,-1.336426,-0.770996,-0.085449,40.283203,-57.312012,7.019043
361,-1.201172,-0.617676,-0.168457,16.967773,-44.250488,-7.690430
362,-0.946289,-0.512207,-0.297363,-17.333984,-0.915527,-8.117676
363,-0.905273,-0.510254,-0.194824,-21.728516,10.375977,0.488281
364,-0.866699,-0.554199,-0.232422,-14.282227,4.516602,10.742188
365,-0.879883,-0.678223,-0.276367,16.967773,-5.676270,28.442383
366,-0.855469,-0.683105,-0.279785,23.193359,-5.737305,24.902344
367,-0.826172,-0.683594,-0.266602,23.376465,-4.516602,16.601562
368,-0.762695,-0.661133,-0.213379,26.916504,-9.704590,-3.906250
369,-0.717773,-0.628906,-0.200195,32.043457,-20.507812,-9.948730
370,-0.687988,-0.616211,-0.180176,42.358398,-32.043457,-8.239746
371,-0.715820,-0.650391,-0.095703,77.819824,-51.330566,1.708984
372,-0.755859,-0.662109,0.025391,79.589844,-53.771973,1.953125
373,-0.751953,-0.660645,0.091309,63.232422,-53.283691,-2.868652
374,-0.717285,-0.601562,0.015625,20.263672,-46.936035,-11.291504
375,-0.703613,-0.612793,-0.076660,11.840820,-44.067383,-16.418457
376,-0.660156,-0.586914,-0.160645,6.652832,-37.902832,-21.850586
377,-0.546875,-0.567871,-0.336426,10.498047,-19.104004,-22.277832
378,-0.492676,-0.526367,-0.365723,15.136719,-9.338379,-17.028809
379,-0.478027,-0.478027,-0.372559,21.545410,-3.601074,-10.498047
380,-0.449707,-0.426758,-0.379883,30.090332,3.051758,-4.394531
381,-0.425293,-0.361816,-0.413086,34.606934,5.920410,0.427246
382,-0.442383,-0.363281,-0.429199,40.588379,8.178711,8.056641
383,-0.488281,-0.440430,-0.449707,52.429199,14.831543,20.874023
384,-0.509277,-0.524902,-0.416504,44.982910,18.615723,23.010254
385,-0.554688,-0.605957,-0.390137,26.916504,18.371582,24.658203
386,-0.622559,-0.678223,-0.394531,7.873535,11.718750,27.343750
387,-0.683105,-0.786133,-0.421875,-19.104004,-5.676270,34.057617
388,-0.616699,-0.787598,-0.427246,-28.198242,-12.268066,34.545898
389,-0.602051,-0.776855,-0.436523,-33.813477,-11.779785,35.217285
390,-0.654297,-0.895996,-0.417969,-7.995605,-11.901855,41.625977
391,-0.719238,-0.962891,-0.362305,8.728027,-14.648438,42.602539
392,-0.803711,-1.093750,-0.325684,27.465820,-20.568848,41.198730
393,-0.854980,-0.946289,-0.481934,61.401367,-23.010254,44.372559
394,-1.041016,-1.460938,-0.250977,158.142090,-20.812988,15.319824
395,-0.985840,-1.538086,-0.069824,138.000488,-3.234863,-13.977051
396,-0.515137,-1.148438,-0.164062,6.347656,73.181152,-102.416992
397,-0.253906,-0.950195,-0.292969,-25.390625,73.242188,-83.984375
398,-0.247070,-0.943359,-0.365723,-60.302734,61.523438,-56.030273
399,-0.316895,-1.082031,-0.579102,-77.819824,46.203613,-28.930664
400,-0.542969,-1.034180,-0.411621,-48.889160,35.278320,-5.432129
401,-0.765137,-0.917480,-0.265625,-32.836914,24.047852,2.319336
402,-0.780762,-0.747559,-0.354980,-8.911133,23.376465,21.911621
403,-1.044922,-0.618164,-0.113281,22.277832,48.645020,6.225586
404,-1.047363,-0.490234,-0.089844,-0.671387,39.245605,-12.573242
405,-1.035645,-0.460449,-0.104980,-20.507812,23.559570,-24.230957
406,-0.868652,-0.334961,-0.264160,-48.400879,15.563965,-33.447266
407,-0.828125,-0.304199,-0.241699,-45.104980,17.089844,-32.226562
408,-0.739258,-0.217285,-0.211914,-33.935547,16.479492,-22.644043
409,-0.705078,-0.185059,-0.163574,-19.348145,18.188477,-1.586914
410,-0.623535,-0.217773,-0.002930,17.822266,2.136230,23.315430
411,-0.651367,-0.241699,0.060547,22.583008,-12.207031,27.404785
412,-0.478027,-0.388184,-0.136719,20.141602,-28.381348,26.428223
413,-0.408691,-0.446289,-0.260742,18.493652,-22.949219,30.151367
414,-0.389160,-0.718262,-0.417969,15.380859,-3.417969,22.583008
415,-0.380371,-0.885742,-0.233887,5.126953,8.117676,3.845215
416,-0.417969,-0.859375,-0.185547,-2.502441,-16.540527,-10.559082
417,-0.398926,-0.882324,-0.129395,-8.972168,-26.123047,-24.963379
418,-0.309082,-0.662109,-0.099121,-13.854980,-30.395508,-34.484863
419,-0.208496,-0.405762,-0.112305,0.427246,-32.958984,-29.357910
420,-0.186523,-0.331543,-0.109375,10.498047,-33.081055,-24.414062
421,-0.200684,-0.253906,-0.125488,24.902344,-34.606934,-11.718750
422,-0.289062,-0.276367,-0.073242,28.747559,-43.029785,-1.525879
423,-0.414551,-0.416992,-0.053223,24.291992,-62.561035,1.770020
424,-0.436035,-0.521973,-0.137695,26.611328,-83.068848,2.441406
425,-0.464844,-0.673340,-0.231445,29.907227,-112.915039,12.268066
426,-0.523438,-0.798828,-0.243164,32.653809,-118.652344,15.075684
427,-0.735352,-1.164062,-0.212891,56.579590,-101.623535,-6.103516
428,-0.868652,-1.342773,-0.165527,74.707031,-89.050293,-21.911621
429,-1.050293,-1.632324,-0.366699,93.078613,-75.561523,-34.790039
430,-1.176270,-1.820801,-0.519531,84.411621,-48.156738,-48.889160
431,-0.856445,-1.127930,-0.353027,-8.666992,-30.517578,-41.809082
432,-0.614746,-0.667480,-0.387695,-74.584961,-28.320312,-27.648926
433,-0.539551,-0.323730,-0.390137,-123.046875,-20.690918,-15.014648
434,-0.611328,-0.252930,-0.435547,-93.017578,-30.151367,-15.075684
435,-0.803223,-0.546387,-0.470703,-39.550781,-24.047852,-12.634277
436,-0.944824,-1.168945,-0.316895,39.855957,-4.394531,-37.109375
437,-0.847656,-0.736328,0.227539,111.511230,-27.282715,-13.183594
438,-1.071777,-0.865234,0.506348,123.840332,-44.738770,4.577637
439,-0.998047,-0.751953,0.308105,89.843750,-30.700684,-12.695312
440,-0.885742,-0.380371,0.302734,45.104980,12.329102,-17.089844
441,-0.987793,-0.413574,0.358398,50.476074,11.962891,-15.625000
442,-1.067383,-0.531738,0.395508,75.500488,-15.502930,-27.893066
443,-1.049316,-0.595215,0.371582,81.604004,-27.954102,-36.926270
444,-1.013672,-0.688477,0.395996,81.298828,-32.958984,-48.461914
445,-0.990723,-0.800293,0.466309,69.763184,-32.714844,-62.866211
446,-0.863281,-1.005859,0.336914,18.615723,-14.282227,-89.416504
447,-0.777344,-1.011719,0.238281,8.117676,4.760742,-90.576172
448,-0.759766,-1.013184,0.329102,2.929688,13.977051,-70.678711
449,-0.634766,-1.008301,0.244629,-12.634277,15.197754,-49.865723
450,-0.502930,-0.793457,0.251465,-30.761719,-27.465820,-14.526367
451,-0.431152,-0.673340,0.190918,-32.348633,-58.959961,-3.112793
452,-0.288574,-0.520996,0.011719,-18.737793,-93.322754,15.258789
453,-0.277832,-0.514160,-0.049316,-6.530762,-94.787598,23.254395
454,-0.354492,-0.548828,0.035645,3.051758,-96.313477,26.916504
455,-0.357910,-0.600098,-0.018066,27.160645,-92.041016,16.601562
456,-0.366699,-0.585938,-0.033203,40.100098,-87.646484,22.033691
457,-0.414551,-0.626465,-0.080566,51.757812,-77.392578,21.667480
458,-0.470215,-0.662109,-0.165039,50.659180,-38.391113,8.911133
459,-0.489746,-0.667969,-0.165039,38.635254,-13.549805,1.281738
460,-0.494629,-0.722168,-0.190918,11.962891,28.137207,-7.080078
461,-0.478516,-0.738281,-0.195801,4.272461,41.198730,-5.432129
462,-0.458984,-0.773926,-0.179199,-2.197266,47.607422,0.122070
463,-0.471680,-0.817383,-0.107910,-23.071289,34.484863,12.756348
464,-0.473145,-0.829102,-0.107910,-35.095215,24.719238,15.808105
465,-0.479980,-0.859863,-0.100098,-44.189453,15.991211,16.723633
466,-0.513184,-0.973633,-0.082520,-51.391602,2.441406,16.479492
467,-0.523926,-1.053223,-0.064453,-46.997070,-2.563477,16.296387
468,-0.531738,-1.134766,-0.036621,-39.611816,-6.591797,15.563965
469,-0.525391,-1.220703,0.024414,-33.752441,-10.559082,12.695312
470,-0.632324,-1.361816,0.085449,-25.695801,-17.395020,1.831055
471,-0.642090,-1.320801,0.067871,-5.065918,-28.625488,-13.366699
472,-0.608398,-1.336914,0.048828,19.470215,-28.564453,-17.822266
473,-0.584473,-1.251465,0.049805,13.793945,16.845703,-13.061523
474,-0.588867,-1.252930,-0.007324,-6.164551,49.316406,-11.108398
475,-0.574219,-1.180176,-0.047363,-25.939941,79.223633,-13.000488
476,-0.594727,-1.195312,0.016113,-59.082031,103.576660,-15.136719
477,-0.600586,-1.215820,0.002441,-65.429688,104.614258,-13.183594
478,-0.596680,-1.199219,-0.063965,-61.218262,102.966309,-11.413574
479,-0.620117,-1.006836,-0.026855,-9.460449,85.815430,-12.695312
480,-0.821289,-0.739746,0.138184,9.582520,48.645020,-7.385254
481,-0.904297,-0.678711,0.049805,8.056641,38.635254,-5.493164
482,-0.991211,-0.647461,0.012207,11.352539,36.865234,-6.652832
483,-1.058105,-0.477051,0.063477,-2.807617,34.667969,-12.939453
484,-1.012695,-0.424805,0.107910,-15.014648,23.803711,-9.948730
485,-0.923340,-0.403320,0.129883,-25.512695,8.117676,-3.173828
486,-0.750977,-0.380371,0.183105,-28.625488,-23.925781,9.887695
487,-0.693848,-0.355469,0.232422,-26.855469,-38.818359,15.747070
488,-0.646973,-0.337402,0.263184,-28.625488,-50.537109,22.399902
489,-0.553223,-0.345703,0.229980,-23.681641,-52.612305,26.000977
490,-0.514160,-0.448730,0.208984,-15.258789,-49.926758,32.287598
491,-0.397461,-0.674805,0.103516,-11.901855,-51.818848,45.471191
492,-0.430176,-1.117676,-0.072754,-39.611816,-52.062988,62.194824
493,-0.506348,-1.369629,-0.121582,-88.867188,-38.574219,36.437988
494,-0.279297,-0.958984,-0.099121,-109.558105,-34.667969,17.211914
495,-0.257324,-0.653320,-0.077637,-94.909668,-34.851074,11.108398
496,-0.228516,-0.556152,-0.045898,-91.430664,-26.916504,5.065918
497,-0.211426,-0.467773,-0.045410,-87.097168,-15.869141,-3.662109
498,-0.228027,-0.316895,0.044434,-64.941406,3.845215,-16.357422
499,-0.231934,-0.285645,0.089355,-53.710938,0.976562,-18.310547
500,-0.249023,-0.290039,0.068848,-48.583984,-8.789062,-17.700195
501,-0.319336,-0.391113,-0.113770,-44.006348,-33.752441,-15.808105
502,-0.357910,-0.444824,-0.154785,-48.400879,-46.020508,-12.023926
503,-0.411621,-0.522461,-0.214844,-56.823730,-64.147949,-3.356934
504,-0.472168,-0.629883,-0.356934,-43.640137,-72.265625,17.272949
505,-0.861328,-1.219238,-0.791992,23.620605,-68.420410,6.408691
506,-0.832520,-1.201660,-0.552734,69.396973,-43.762207,4.821777
507,-0.898438,-1.748047,-0.134766,92.163086,9.155273,-31.066895
508,-0.914551,-1.721191,-0.067871,78.308105,15.869141,-38.940430
509,-0.916016,-1.607910,-0.145996,59.326172,5.126953,-38.879395
510,-0.748535,-0.681641,-0.331543,0.671387,-12.390137,-16.296387
511,-0.644043,-0.316406,-0.260254,-59.020996,-12.756348,-9.155273
512,-0.643555,-0.185547,-0.207520,-116.516113,-22.949219,-13.671875
513,-0.501465,-0.228516,-0.676270,-98.937988,-27.770996,-31.738281
514,-0.651367,-0.699219,-0.566406,-57.983398,-11.840820,-7.873535
515,-0.818359,-1.535156,-0.681641,-66.772461,9.338379,0.915527
516,-0.819336,-1.656250,-0.704102,2.014160,33.325195,-8.666992
517,-0.922852,-0.951660,0.356445,218.017578,0.488281,43.579102
518,-1.004395,-0.966309,0.589844,196.716309,4.272461,36.743164
519,-1.005859,-0.865723,0.557129,137.573242,20.385742,15.014648
520,-0.878418,-0.580078,0.458984,62.072754,18.859863,-23.986816
521,-0.779785,-0.521973,0.392090,66.711426,3.601074,-36.865234
522,-0.691895,-0.512207,0.359375,78.857422,-7.080078,-49.072266
523,-0.603027,-0.559570,0.359375,85.144043,-16.540527,-64.575195
524,-0.580566,-0.619141,0.320312,77.880859,-15.991211,-70.495605
525,-0.570312,-0.687988,0.286621,67.871094,-12.451172,-75.012207
526,-0.577148,-0.764160,0.262207,57.434082,-6.408691,-78.125000
527,-0.609375,-0.905273,0.312988,36.254883,5.676270,-71.044922
528,-0.660645,-0.959473,0.425293,18.859863,4.882812,-60.485840
529,-0.622070,-0.968750,0.421387,-31.982422,1.586914,-34.606934
530,-0.568359,-0.917969,0.366211,-43.701172,-7.385254,-23.925781
531,-0.501953,-0.834961,0.310059,-43.640137,-20.141602,-17.944336
532,-0.444336,-0.752441,0.261719,-36.621094,-35.278320,-11.230469
533,-0.395996,-0.642090,0.183105,-17.333984,-63.232422,2.807617
534,-0.402344,-0.619141,0.128906,-3.906250,-74.096680,5.310059
535,-0.417969,-0.651855,0.096191,12.084961,-81.726074,3.967285
536,-0.413086,-0.619141,0.067383,28.442383,-88.806152,-4.455566
537,-0.422363,-0.636719,0.032715,25.573730,-86.181641,-5.737305
538,-0.435547,-0.652832,-0.014648,21.057129,-78.918457,-7.995605
539,-0.458496,-0.698242,-0.151367,15.563965,-57.739258,-13.000488
540,-0.447266,-0.731934,-0.208984,20.263672,-43.151855,-14.770508
541,-0.409180,-0.744141,-0.263184,30.700684,-24.230957,-12.634277
542,-0.398926,-0.795410,-0.184570,34.545898,11.474609,-5.004883
543,-0.379395,-0.805664,-0.160156,22.094727,25.146484,-2.563477
544,-0.396484,-0.860840,-0.108887,4.333496,36.743164,0.549316
545,-0.396484,-0.895508,-0.095215,-14.953613,44.799805,1.403809
546,-0.376465,-0.919434,-0.077637,-43.823242,48.400879,6.896973
547,-0.371094,-0.929688,-0.068359,-48.156738,41.381836,11.840820
548,-0.368652,-0.955566,-0.062500,-47.912598,31.066895,15.686035
549,-0.368652,-0.992676,-0.069824,-45.532227,20.874023,16.479492
550,-0.362793,-1.100586,-0.057617,-33.752441,8.300781,12.695312
551,-0.351074,-1.152832,-0.041992,-24.841309,5.493164,11.718750
552,-0.386230,-1.244629,-0.005371,-12.084961,2.990723,9.033203
553,-0.452637,-1.317871,-0.005371,32.104492,3.173828,0.244141
554,-0.467773,-1.299805,0.017090,51.574707,10.986328,0.976562
555,-0.439453,-1.259277,0.114746,27.587891,42.358398,-8.666992
556,-0.355957,-1.180176,0.063965,-3.051758,55.175781,-15.197754
557,-0.295898,-1.114746,0.053711,-33.447266,64.514160,-18.676758
558,-0.247070,-1.105957,-0.007812,-71.472168,60.119629,-19.348145
559,-0.266113,-1.127930,-0.037109,-73.364258,53.466797,-12.756348
560,-0.350098,-1.166992,0.043945,-69.519043,43.395996,-3.723145
561,-0.452148,-1.279785,0.027832,-63.293457,28.991699,8.422852
562,-0.485840,-1.295898,0.038574,-53.588867,25.207520,6.713867
563,-0.475098,-1.183105,0.053711,-37.719727,20.263672,4.699707
564,-0.440918,-0.907715,-0.029785,-15.686035,28.320312,1.037598
565,-0.488281,-0.817871,-0.004883,-7.995605,36.193848,-3.784180
566,-0.564453,-0.750488,0.016602,-5.310059,41.992188,-8.911133
567,-0.639648,-0.666016,-0.004883,-1.342773,50.659180,-5.676270
568,-0.897949,-0.697754,0.103027,15.380859,53.161621,7.324219
569,-0.966797,-0.683594,0.217773,12.207031,43.151855,10.131836
570,-0.989258,-0.683105,0.227539,-4.577637,2.075195,14.099121
571,-0.968750,-0.717285,0.209473,-3.845215,-18.493652,14.404297
572,-0.850586,-0.669922,0.248047,-0.122070,-38.391113,12.878418
573,-0.709961,-0.599609,0.321777,3.479004,-58.349609,17.517090
574,-0.484375,-0.522949,0.422363,-17.578125,-94.116211,40.466309
575,-0.444824,-0.612793,0.378418,-37.902832,-106.994629,55.541992
576,-0.403809,-0.778320,0.198242,-64.392090,-115.783691,67.993164
577,-0.368164,-1.124512,-0.125488,-87.158203,-113.891602,75.622559
578,-0.378906,-1.220703,-0.145020,-119.201660,-103.393555,59.814453
579,-0.239746,-0.969238,-0.256836,-117.919922,-70.556641,20.141602
580,-0.191895,-0.797852,-0.262207,-84.411621,-52.490234,11.840820
581,-0.164551,-0.629883,-0.149414,-47.912598,-33.081055,6.774902
582,-0.178711,-0.361816,0.196289,-31.066895,-17.211914,1.403809
583,-0.201660,-0.306152,0.246582,-39.611816,-20.629883,-0.671387
584,-0.217285,-0.277344,0.243652,-50.598145,-26.184082,-1.342773
585,-0.309082,-0.300293,0.023438,-66.528320,-31.799316,-4.943848
586,-0.344238,-0.302734,-0.051758,-73.120117,-31.616211,-9.155273
587,-0.375977,-0.351074,-0.065430,-84.838867,-38.818359,-13.366699
588,-0.404297,-0.423340,-0.143066,-95.886230,-53.833008,-16.479492
589,-0.402832,-0.567383,-0.397949,-99.487305,-78.613281,-12.939453
590,-0.386230,-0.683594,-0.526855,-93.505859,-79.040527,-5.371094
591,-0.409668,-0.894043,-0.630859,-74.401855,-74.707031,3.479004
592,-0.715332,-1.663086,-0.793945,33.508301,-45.898438,9.399414
593,-0.904785,-1.952148,-0.486328,81.481934,-21.728516,-3.051758
594,-1.019531,-1.842773,-0.004395,84.655762,-12.390137,-19.104004
595,-1.005859,-1.051270,0.127441,35.888672,-21.789551,1.403809
596,-0.942871,-0.665039,0.029297,10.498047,-20.690918,8.056641
597,-0.853516,-0.404785,0.079590,-25.512695,-21.789551,6.835938
598,-0.773926,-0.309082,0.082031,-74.829102,-38.452148,-3.356934
599,-0.581543,-0.355957,-0.372559,-150.329590,-59.448242,-17.150879
600,-0.572266,-0.474609,-0.564453,-139.160156,-52.185059,-8.361816
601,-0.608887,-0.950195,-0.447266,-36.621094,-47.180176,4.028320
602,-0.652344,-1.265137,-0.571777,-8.239746,-51.208496,11.901855
603,-0.628906,-1.159668,-0.383789,62.194824,-44.921875,20.812988
604,-0.693848,-1.046875,-0.037598,172.668457,-34.179688,23.620605
605,-0.606445,-0.833984,0.401855,167.541504,-21.179199,17.822266
606,-0.614746,-0.772461,0.571777,140.441895,-10.925293,7.568359
607,-0.658203,-0.791016,0.657715,103.637695,-8.666992,-8.911133
608,-0.658203,-0.770996,0.553711,44.128418,-21.362305,-54.992676
609,-0.668457,-0.790527,0.504395,43.945312,-29.602051,-77.209473
610,-0.581055,-0.713379,0.495117,32.165527,-36.437988,-84.716797
611,-0.512695,-0.729004,0.364746,11.840820,-38.574219,-85.449219
612,-0.476074,-0.722168,0.364746,5.676270,-38.452148,-76.416016
613,-0.449219,-0.749512,0.353516,3.295898,-40.527344,-65.063477
614,-0.413086,-0.774414,0.328613,7.080078,-43.823242,-51.391602
615,-0.375488,-0.862305,0.333496,27.282715,-53.649902,-19.958496
616,-0.363281,-0.895996,0.336914,29.907227,-57.189941,-8.666992
617,-0.395020,-0.951660,0.404297,22.644043,-55.969238,1.708984
618,-0.407715,-0.973145,0.411621,13.366699,-54.016113,-0.915527
619,-0.408691,-0.964844,0.397461,3.662109,-53.100586,-5.187988
620,-0.433105,-0.938965,0.322754,-14.587402,-53.100586,-13.244629
621,-0.435547,-0.905762,0.254395,-16.601562,-54.687500,-15.930176
622,-0.448730,-0.877441,0.240723,-18.859863,-59.082031,-16.235352
623,-0.500000,-0.871582,0.253906,-22.766113,-85.021973,-16.113281
624,-0.517090,-0.878418,0.238281,-19.653320,-115.417480,-15.625000
625,-0.505371,-0.832520,0.159180,-23.681641,-146.362305,-12.084961
626,-0.406250,-0.840332,-0.198730,-34.667969,-156.799316,-3.051758
627,-0.392090,-0.834473,-0.250488,-25.695801,-136.840820,-2.258301
628,-0.402832,-0.819824,-0.250977,-17.089844,-115.966797,-1.281738
629,-0.374023,-0.791016,-0.187988,-24.963379,-75.317383,0.610352
630,-0.360840,-0.808105,-0.159668,-33.996582,-53.283691,3.173828
631,-0.333984,-0.841309,-0.180664,-42.724609,-31.433105,5.493164
632,-0.306152,-0.917969,-0.079102,-49.865723,-1.403809,8.789062
633,-0.292969,-0.947266,-0.061523,-47.851562,0.854492,9.521484
634,-0.261719,-0.976562,-0.020996,-38.635254,-3.906250,9.704590
635,-0.241699,-0.980957,-0.000977,-36.621094,-7.751465,9.765625
636,-0.228027,-0.988770,0.005371,-37.231445,-10.681152,9.460449
637,-0.219727,-1.010254,0.023926,-40.405273,-15.502930,8.361816
638,-0.189453,-1.083984,0.022949,-40.222168,-19.348145,6.774902
639,-0.162109,-1.126953,0.010254,-35.766602,-24.108887,6.530762
640,-0.142578,-1.163086,0.018555,-29.174805,-32.531738,4.089355
641,-0.182129,-1.189453,0.038574,-31.005859,-37.475586,3.356934
642,-0.284180,-1.157227,0.202637,-43.945312,-50.720215,-1.647949
643,-0.387695,-1.094238,0.017578,-84.106445,-38.818359,7.263184
644,-0.476074,-1.127441,0.115234,-90.759277,-18.676758,13.244629
645,-0.491211,-1.121094,0.259766,-100.646973,-7.080078,18.188477
646,-0.507324,-0.987305,0.246582,-153.564453,-16.174316,16.052246
647,-0.476074,-0.955078,0.187988,-195.678711,-30.578613,6.408691
648,-0.425293,-0.941895,0.042480,-238.647461,-41.931152,-2.014160
649,-0.333008,-1.054688,-0.370117,-287.963867,-31.555176,-10.498047
650,-0.284668,-1.134277,-0.514648,-274.841309,-27.221680,-17.395020
651,-0.211426,-1.124023,-0.597656,-241.088867,-32.287598,-20.446777
652,-0.222168,-1.149414,-0.649414,-159.484863,-46.936035,-9.704590
653,-0.293945,-1.174316,-0.625488,-125.427246,-47.729492,-7.507324
654,-0.364746,-1.151367,-0.467773,-94.909668,-38.757324,-2.624512
655,-0.410156,-1.073242,-0.377441,-72.937012,-32.409668,3.234863
656,-0.550781,-1.140137,-0.346191,-3.784180,12.145996,12.634277
657,-0.602539,-1.139160,-0.205566,32.165527,36.254883,1.953125
658,-0.703125,-1.135742,0.066895,66.650391,40.832520,-14.709473
659,-0.457031,-0.916992,0.351562,104.736328,-5.981445,-23.803711
660,-0.416016,-0.689941,0.689453,93.750000,-47.729492,-3.051758
661,-0.503906,-0.825195,0.658203,65.185547,-85.205078,6.347656
662,-0.468262,-0.725586,0.625977,31.188965,-106.750488,3.906250
663,-0.457520,-0.660645,0.429199,-15.625000,-127.319336,1.647949
664,-0.426270,-0.748047,0.319336,-26.916504,-140.686035,3.173828
665,-0.220215,-1.097656,-0.345703,-65.124512,-187.622070,30.944824
666,-0.221191,-1.049316,-0.438965,-72.998047,-181.823730,46.020508
667,-0.292969,-0.743164,-0.243652,-67.871094,-172.729492,59.692383
668,-0.459473,-0.787109,-0.196289,-67.260742,-139.343262,43.823242
669,-0.412109,-0.700195,-0.199219,-52.001953,-111.145020,28.259277
670,-0.391602,-0.632812,-0.111328,-34.973145,-83.374023,16.235352
671,-0.395020,-0.578613,0.047363,-36.621094,-56.396484,-0.549316
672,-0.404297,-0.577637,0.042480,-49.072266,-54.565430,-2.807617
673,-0.431152,-0.607910,0.015625,-57.067871,-57.739258,0.183105
674,-0.498047,-0.641602,-0.006348,-51.452637,-68.969727,7.995605
675,-0.529785,-0.661621,-0.000488,-46.264648,-72.570801,6.896973
676,-0.541504,-0.661621,-0.006836,-41.198730,-74.340820,2.746582
677,-0.534180,-0.636719,-0.009277,-36.132812,-76.110840,-2.258301
678,-0.484863,-0.562500,-0.087402,-34.057617,-82.397461,-10.498047
679,-0.480469,-0.586426,-0.155273,-32.653809,-84.838867,-14.343262
680,-0.490234,-0.681641,-0.254883,-26.611328,-90.698242,-27.587891
681,-0.522461,-0.747070,-0.302734,-24.169922,-93.872070,-39.184570
682,-0.553711,-0.790527,-0.356934,-21.423340,-94.299316,-52.673340
683,-0.559570,-0.801270,-0.359375,-14.221191,-79.772949,-67.443848
684,-0.580078,-0.831055,-0.244141,-11.901855,-71.716309,-65.612793
685,-0.610352,-0.874023,-0.117188,-18.310547,-67.871094,-57.800293
686,-0.631836,-0.931152,-0.004883,-34.729004,-69.946289,-42.724609
687,-1.156250,-1.537598,-0.431641,-26.062012,-68.725586,-29.724121
688,-0.719727,-1.101074,-0.158691,-21.484375,-78.613281,-27.099609
689,-0.683105,-1.012207,-0.116211,-32.775879,-74.890137,-30.273438
690,-0.632324,-1.012695,-0.307617,-58.837891,-65.063477,-22.949219
691,-0.614258,-0.989746,-0.372559,-37.048340,-61.401367,-12.268066
692,-0.607422,-1.062012,-0.352051,-9.216309,-54.138184,-1.953125
693,-0.642578,-0.981934,-0.070312,29.541016,-45.471191,21.667480
694,-0.661621,-0.876953,0.017090,32.287598,-41.992188,25.146484
695,-0.757324,-0.822266,0.109863,24.047852,-26.306152,7.507324
696,-0.771973,-0.799805,0.083496,20.935059,-16.845703,-4.821777
697,-0.797852,-0.816895,0.087402,22.033691,-8.911133,-16.662598
698,-0.767090,-0.795898,0.176758,5.432129,0.000000,-37.475586
699,-0.715820,-0.792480,0.161133,-4.699707,3.295898,-47.241211
700,-0.664551,-0.808105,0.170898,-8.361816,7.507324,-54.321289
701,-0.605469,-0.817383,0.203613,-16.418457,8.666992,-60.791016
702,-0.438965,-0.802734,0.194824,-18.859863,6.530762,-58.288574
703,-0.273438,-0.756348,0.046387,-8.300781,4.638672,-39.794922
704,-0.227051,-0.735352,0.024902,6.530762,3.540039,-28.503418
705,-0.211426,-0.739258,0.047363,23.376465,2.990723,-18.249512
706,-0.217285,-0.783203,0.091797,30.700684,1.892090,-14.648438
707,-0.226074,-0.865723,0.138184,34.545898,1.770020,-14.221191
708,-0.232910,-0.932617,0.161133,34.057617,1.525879,-14.709473
709,-0.239258,-1.010254,0.191895,33.142090,0.061035,-14.953613
710,-0.262695,-1.135742,0.268555,28.320312,-8.789062,-11.718750
711,-0.312988,-1.163086,0.362793,21.179199,-18.676758,-9.460449
712,-0.319336,-1.140625,0.312012,5.859375,-28.442383,-7.934570
713,-0.344727,-1.003418,0.172852,4.394531,-35.095215,-2.807617
714,-0.341797,-0.948242,0.105469,5.920410,-34.790039,-4.882812
715,-0.337891,-0.894531,0.058594,10.009766,-32.836914,-8.789062
716,-0.343262,-0.878418,0.037109,18.127441,-33.081055,-13.854980
717,-0.341797,-0.867676,0.009766,34.729004,-36.254883,-27.893066
718,-0.347656,-0.883789,0.011230,43.090820,-37.353516,-33.264160
719,-0.304199,-0.800781,0.063477,38.146973,-43.151855,-28.381348
720,-0.303711,-0.784668,0.111328,10.620117,-46.752930,-18.310547
721,-0.162598,-0.716309,0.327637,-38.146973,-51.330566,-2.868652
722,-0.368652,-0.766602,-0.158691,-118.103027,-29.174805,0.610352
723,-0.391602,-0.804199,-0.278320,-130.737305,-2.319336,1.403809
724,-0.364746,-0.790527,-0.374512,-118.652344,20.446777,1.403809
725,-0.403320,-0.836426,-0.417969,-86.486816,35.095215,4.577637
726,-0.427246,-0.879883,-0.411133,-21.423340,49.072266,13.549805
727,-0.448730,-0.867676,-0.265137,-3.540039,48.950195,17.761230
728,-0.482422,-0.859375,-0.256348,-2.380371,31.616211,22.521973
729,-0.492676,-0.862793,-0.204590,-5.004883,20.812988,22.888184
730,-0.491699,-0.885742,-0.195312,-6.469727,11.840820,24.414062
731,-0.476562,-0.958008,-0.152344,-11.962891,7.263184,26.916504
732,-0.459961,-1.014648,-0.176270,-15.808105,11.840820,28.015137
733,-0.454590,-1.055664,-0.189453,-17.822266,19.714355,28.503418
734,-0.441406,-1.103027,-0.187012,-18.493652,27.221680,27.404785
735,-0.455566,-1.171875,-0.164551,-14.526367,30.822754,24.780273
736,-0.458496,-1.185059,-0.145508,-11.108398,27.465820,21.301270
737,-0.449219,-1.166504,-0.111328,-9.521484,23.864746,18.981934
738,-0.421387,-1.019531,-0.085449,-13.977051,20.263672,22.705078
739,-0.420898,-0.987793,-0.112305,-18.615723,25.024414,27.832031
740,-0.430176,-0.989258,-0.128906,-22.460938,33.386230,29.663086
741,-0.455078,-0.893066,-0.149902,-32.836914,51.513672,40.466309
742,-0.541504,-0.969238,-0.166992,-37.170410,60.241699,46.936035
743,-0.712402,-1.132812,-0.186523,-35.644531,70.190430,44.677734
744,-0.813477,-1.218262,-0.175781,-32.165527,65.917969,40.954590
745,-0.864258,-1.196289,-0.252930,-26.062012,66.528320,40.039062
746,-0.865723,-1.150391,-0.299316,-21.545410,72.570801,41.259766
747,-0.746582,-0.770020,-0.243164,-14.770508,89.660645,36.254883
748,-0.719727,-0.654297,-0.168457,-17.822266,94.970703,35.583496
749,-0.690430,-0.511230,-0.116211,-19.104004,95.642090,33.081055
750,-0.662109,-0.413574,-0.045898,-13.732910,92.163086,35.278320
751,-0.659668,-0.364746,-0.044434,-9.521484,88.623047,38.635254
752,-0.648926,-0.382812,-0.025879,-3.173828,81.848145,41.687012
753,-0.752930,-0.453613,-0.014160,18.859863,61.828613,55.664062
754,-0.807617,-0.491211,-0.021973,35.400391,50.048828,61.523438
755,-0.851074,-0.561035,0.034180,52.185059,37.414551,65.185547
756,-0.810547,-0.780273,-0.051758,62.377930,13.305664,65.551758
757,-0.740723,-0.880371,-0.211426,69.580078,17.150879,63.049316
758,-0.677734,-0.915039,-0.203613,73.242188,29.174805,58.654785
759,-0.607422,-0.859375,-0.183105,50.964355,60.485840,48.339844
760,-0.573242,-0.792480,-0.136719,31.188965,73.425293,43.090820
761,-0.526367,-0.784668,-0.172852,17.883301,83.557129,39.184570
762,-0.478027,-0.773926,-0.240723,10.314941,100.952148,31.066895
763,-0.410156,-0.702637,-0.281250,20.568848,115.600586,26.611328
764,-0.373047,-0.608398,-0.229980,39.611816,126.525879,27.099609
765,-0.397461,-0.478516,-0.065430,71.594238,123.168945,34.118652
766,-0.443359,-0.469238,0.011719,78.918457,114.746094,33.874512
767,-0.487793,-0.472168,0.085938,80.078125,103.088379,29.296875
768,-0.499023,-0.549316,0.105957,74.768066,71.411133,1.586914
769,-0.463867,-0.572754,0.062500,73.120117,57.617188,-4.699707
770,-0.438965,-0.612305,-0.010742,68.237305,50.109863,-9.094238
771,-0.398926,-0.713867,-0.193359,55.175781,43.212891,-17.395020
772,-0.390625,-0.791504,-0.256836,50.354004,41.381836,-20.141602
773,-0.383789,-0.844238,-0.324707,46.020508,40.222168,-22.094727
774,-0.407227,-0.897949,-0.468750,39.672852,42.724609,-21.118164
775,-0.436035,-0.920410,-0.554199,40.161133,44.677734,-19.348145
776,-0.459961,-0.949219,-0.648926,47.058105,46.630859,-17.517090
777,-0.604492,-0.955078,-0.664551,46.752930,46.752930,-10.742188
778,-0.658203,-0.916504,-0.727051,52.429199,49.682617,-5.798340
779,-0.639648,-0.763672,-0.574707,54.626465,66.223145,-13.000488
780,-0.622070,-0.689941,-0.448730,63.049316,76.171875,-16.845703
781,-0.607422,-0.665039,-0.323730,64.453125,84.045410,-19.653320
782,-0.569336,-0.663574,-0.232422,52.673340,84.045410,-21.423340
783,-0.549316,-0.655273,-0.237793,45.349121,81.298828,-22.827148
784,-0.534668,-0.663086,-0.237793,39.916992,77.636719,-27.221680
785,-0.474609,-0.756348,-0.277832,41.320801,62.072754,-34.179688
786,-0.432617,-0.875000,-0.348633,46.142578,49.438477,-28.259277
787,-0.432129,-1.054688,-0.470215,52.062988,40.222168,-16.479492
788,-0.608887,-1.383301,-0.590820,89.660645,64.941406,3.723145
789,-0.725586,-1.216797,-0.373047,134.399414,80.322266,13.610840
790,-0.775391,-1.013184,-0.140137,168.395996,94.238281,6.347656
791,-0.819336,-0.822754,0.236816,136.108398,98.999023,-1.831055
792,-0.799805,-0.750977,0.255859,93.750000,102.661133,-12.939453
793,-0.716309,-0.678711,0.105469,64.941406,109.313965,-20.019531
794,-0.665527,-0.634277,0.091797,57.556152,111.083984,-20.935059
795,-0.531738,-0.598633,0.025391,62.011719,111.328125,-19.836426
796,-0.476562,-0.569824,0.063477,62.805176,115.600586,-16.601562
797,-0.458984,-0.595703,0.126465,53.894043,119.384766,-12.451172
798,-0.490723,-0.743652,0.149902,16.845703,128.173828,-12.756348
799,-0.534668,-0.859863,0.168945,-0.610352,130.737305,-10.314941
800,-0.585938,-1.021973,0.182617,-33.630371,123.046875,-2.197266
801,-0.598145,-1.117676,0.096680,-44.616699,115.478516,3.417969
802,-0.596680,-1.177246,-0.003906,-44.860840,104.736328,10.131836
803,-0.601562,-1.238770,-0.112305,-38.269043,95.703125,16.296387
804,-0.499023,-1.081055,-0.309570,-2.319336,94.909668,22.216797
805,-0.457031,-0.959473,-0.329590,22.888184,94.055176,24.108887
806,-0.372070,-0.766113,-0.152344,66.528320,88.378906,30.212402
807,-0.333008,-0.719727,-0.149414,73.547363,87.768555,30.090332
808,-0.304199,-0.714355,-0.088379,77.209473,87.707520,29.235840
809,-0.284668,-0.711426,-0.047852,74.707031,85.998535,27.954102
810,-0.276367,-0.779785,-0.083008,56.091309,84.411621,29.296875
811,-0.289062,-0.800781,-0.220703,56.152344,89.538574,32.714844
812,-0.311035,-0.837402,-0.268555,65.307617,95.581055,33.569336
813,-0.338867,-0.850098,-0.338379,84.167480,118.469238,39.001465
814,-0.353027,-0.837891,-0.264648,95.397949,126.525879,41.259766
815,-0.358398,-0.831055,-0.238281,96.862793,132.141113,41.442871
816,-0.379883,-0.879395,-0.152344,90.332031,133.972168,36.499023
817,-0.349121,-0.795410,-0.178223,82.885742,126.831055,33.081055
818,-0.352051,-0.782227,-0.220703,79.101562,125.671387,33.142090
819,-0.391602,-0.829590,-0.157227,85.998535,119.262695,30.700684
820,-0.402832,-0.828125,-0.119141,85.144043,112.670898,28.503418
821,-0.409668,-0.832520,-0.085938,80.200195,105.712891,27.160645
822,-0.402344,-0.882324,-0.043457,60.424805,87.585449,26.611328
823,-0.395996,-0.907227,-0.039551,51.757812,76.477051,28.198242
824,-0.391602,-0.926270,-0.028320,43.945312,63.598633,31.066895
825,-0.394531,-0.944336,-0.021484,35.339355,49.621582,34.545898
826,-0.408203,-0.953125,-0.062988,5.432129,29.907227,41.931152
827,-0.427246,-0.965820,-0.111328,-9.948730,23.315430,46.142578
828,-0.461426,-1.006836,-0.171387,-20.263672,15.808105,47.973633
829,-0.546875,-1.132812,-0.226074,-19.653320,0.915527,43.823242
830,-0.523438,-1.086426,-0.299805,-23.803711,-7.690430,40.527344
831,-0.505859,-1.188477,-0.490723,3.234863,-14.709473,33.569336
832,-0.480957,-1.225586,-0.602539,33.264160,-12.390137,26.306152
833,-0.395020,-1.145020,-0.525391,55.664062,-9.643555,21.301270
834,-0.351074,-1.119629,-0.561035,54.443359,1.525879,25.878906
835,-0.318848,-1.006348,-0.589844,48.583984,16.967773,33.020020
836,-0.483887,-0.957031,-0.534180,4.699707,53.833008,46.875000
837,-0.540039,-1.021973,-0.514160,-30.395508,76.660156,52.551270
838,-0.531738,-1.187500,-0.571777,-75.866699,133.850098,84.899902
839,-0.844727,-1.423828,-0.570801,-68.603516,157.226562,85.327148
840,-0.688477,-1.215820,-0.573730,-51.818848,168.151855,77.575684
841,-0.587402,-1.060547,-0.527344,-26.184082,179.382324,64.086914
842,-0.594238,-0.856934,-0.431641,25.451660,191.528320,41.687012
843,-0.692383,-0.758789,-0.313965,34.545898,191.833496,32.226562
844,-0.764160,-0.689941,-0.203613,34.912109,185.729980,28.259277
845,-0.937988,-0.735840,-0.081543,35.705566,165.161133,21.362305
846,-1.015625,-0.512207,0.031250,36.010742,110.229492,14.221191
847,-1.006348,-0.524414,0.177246,27.770996,80.200195,9.521484
848,-0.894043,-0.512207,0.248047,10.803223,45.227051,4.028320
849,-0.689453,-0.495605,0.182617,-1.586914,-8.605957,7.995605
850,-0.642578,-0.533691,0.062012,10.131836,-13.793945,14.892578
851,-0.633789,-0.558105,0.061523,33.569336,-6.103516,20.019531
852,-0.629395,-0.568359,0.121094,66.345215,2.197266,21.789551
853,-0.596191,-0.499023,0.350586,106.140137,0.488281,32.226562
854,-0.407227,-0.547363,0.278809,68.054199,-18.493652,32.287598
855,-0.343262,-1.037598,-0.544434,33.203125,-18.310547,32.165527
856,-0.347656,-1.206543,-0.732422,17.395020,-17.333984,40.405273
857,-0.231445,-1.181641,-0.831543,-23.193359,21.362305,5.920410
858,-0.166992,-0.977539,-0.716309,-8.666992,55.236816,-9.460449
859,-0.140137,-0.747070,-0.430176,-0.549316,83.618164,-15.747070
860,-0.139648,-0.592773,-0.160645,-6.286621,96.496582,-17.272949
861,-0.203125,-0.493164,0.089355,-4.516602,84.533691,-18.371582
862,-0.224609,-0.487793,0.067871,5.126953,68.603516,-22.338867
863,-0.238770,-0.359375,0.096191,-0.549316,54.138184,-26.916504
864,-0.272949,-0.316406,0.074707,-3.906250,32.043457,-24.108887
865,-0.346191,-0.313965,-0.013672,-3.540039,9.460449,-20.263672
866,-0.357910,-0.380859,-0.285645,18.371582,-25.451660,-19.348145
867,-0.315430,-0.443848,-0.399902,39.550781,-34.973145,-15.930176
868,-0.307617,-0.538086,-0.484375,66.223145,-40.771484,-8.728027
869,-0.295898,-0.676758,-0.524902,97.961426,-39.001465,-0.366211
870,-0.359863,-1.273438,-0.434082,130.981445,-22.216797,10.864258
871,-0.475586,-1.708496,-0.508789,128.784180,-12.390137,6.408691
872,-0.983398,-2.044434,-0.383789,80.871582,11.962891,-7.812500
873,-0.919922,-1.617676,-0.348145,40.283203,0.061035,-1.342773
874,-0.779785,-1.039551,-0.336914,12.817383,-12.268066,6.347656
875,-0.666016,-0.363281,-0.142578,-59.997559,-29.968262,-14.343262
876,-0.515137,-0.201660,-0.291016,-78.918457,-27.343750,-24.841309
877,-0.457031,-0.238281,-0.349609,-65.856934,-18.981934,-15.991211
878,-0.580566,-0.779297,-0.411621,-27.526855,-7.995605,22.705078
879,-0.727051,-1.269043,-0.732422,-7.324219,5.920410,25.756836
880,-0.888672,-1.382324,-0.474121,61.096191,22.460938,10.498047
881,-0.899414,-1.261719,0.188477,170.104980,8.117676,-4.577637
882,-0.783203,-1.147461,0.410156,144.897461,11.047363,-9.582520
883,-0.709961,-1.048828,0.450684,83.129883,21.301270,-15.502930
884,-0.653320,-0.891113,0.360840,33.935547,25.390625,-21.484375
885,-0.547852,-0.687988,0.184082,-1.708984,17.150879,-38.879395
886,-0.482910,-0.662598,0.120117,-7.385254,13.916016,-46.142578
887,-0.602051,-0.777832,-0.104980,-5.798340,16.052246,-49.987793
888,-0.441895,-0.777344,0.009277,11.840820,24.353027,-47.485352
889,-0.453125,-0.807617,0.044434,14.038086,33.874512,-44.433594
890,-0.476562,-0.862305,0.066895,12.512207,41.564941,-41.870117
891,-0.557617,-0.977051,0.152832,-3.295898,49.499512,-33.142090
892,-0.595703,-1.033691,0.153809,-13.549805,47.058105,-27.587891
893,-0.595703,-1.044434,0.165527,-24.169922,40.771484,-23.071289
894,-0.522949,-0.921875,0.200684,-42.602539,12.451172,-19.897461
895,-0.463379,-0.836426,0.168945,-46.447754,-4.821777,-15.808105
896,-0.416016,-0.773438,0.168457,-47.607422,-24.658203,-12.268066
897,-0.364258,-0.680176,0.072754,-53.466797,-53.161621,-8.972168
898,-0.405762,-0.701660,0.129883,-60.913086,-65.795898,-12.268066
899,-0.386230,-0.675781,0.139648,-72.998047,-77.697754,-11.474609
900,-0.351562,-0.674316,0.089844,-83.557129,-87.280273,-9.338379
901,-0.504883,-0.737793,-0.123047,-106.262207,-86.730957,-4.943848
902,-0.403809,-0.576660,-0.354980,-107.299805,-72.448730,-5.737305
903,-0.389648,-0.736816,-0.551270,-98.937988,-36.682129,7.995605
904,-0.392090,-0.801270,-0.778809,-28.015137,1.342773,8.239746
905,-0.382812,-0.778320,-0.819336,9.826660,9.216309,10.742188
906,-0.338867,-0.756836,-0.687500,37.597656,16.906738,13.061523
907,-0.325195,-0.750000,-0.416992,25.085449,16.784668,16.845703
908,-0.334473,-0.758789,-0.380859,8.300781,18.249512,19.775391
909,-0.341797,-0.780762,-0.380371,-28.747559,19.897461,22.094727
910,-0.354492,-0.816895,-0.393555,-37.780762,17.272949,22.033691
911,-0.369629,-0.864746,-0.386719,-42.175293,12.390137,21.240234
912,-0.391602,-0.916992,-0.388184,-44.494629,7.263184,19.409180
913,-0.404297,-1.019531,-0.409668,-48.217773,3.479004,15.014648
914,-0.400391,-1.060059,-0.426270,-48.889160,2.624512,13.916016
915,-0.382324,-1.098145,-0.460449,-45.837402,1.708984,13.854980
916,-0.388672,-1.164551,-0.484375,-33.020020,0.854492,11.230469
917,-0.375000,-1.156250,-0.490723,-21.179199,1.098633,10.620117
918,-0.338867,-1.111328,-0.490234,-9.460449,7.080078,15.441895
919,-0.367188,-1.002930,-0.410156,-5.615234,28.381348,24.780273
920,-0.404297,-0.969238,-0.325195,-15.258789,32.592773,23.437500
921,-0.422363,-0.950195,-0.447266,-31.005859,35.400391,21.789551
922,-0.472168,-0.967285,-0.426758,-42.724609,30.517578,22.949219
923,-0.504883,-1.036133,-0.454102,-52.551270,30.822754,26.428223
924,-0.543457,-1.109863,-0.427734,-59.631348,33.630371,32.348633
925,-0.603027,-1.180664,-0.446289,-67.749023,40.161133,40.405273
926,-0.576172,-1.098145,-0.414062,-54.809570,40.771484,36.193848
927,-0.470703,-0.886230,-0.390625,-43.395996,40.405273,34.057617
928,-0.453613,-0.643555,-0.338379,-30.090332,50.415039,28.198242
929,-0.494141,-0.577148,-0.300781,-22.460938,52.124023,22.644043
930,-0.613770,-0.555664,-0.265625,-7.629395,42.175293,13.671875
931,-0.669922,-0.552734,-0.219238,2.624512,33.447266,11.474609
932,-0.717285,-0.580078,-0.141113,6.347656,21.911621,9.338379
933,-0.708984,-0.604492,-0.114746,-3.784180,-4.150391,5.615234
934,-0.670898,-0.643555,-0.134277,-4.821777,-16.418457,4.699707
935,-0.677246,-0.739258,-0.065430,-4.699707,-27.465820,3.601074
936,-0.564941,-0.832031,-0.236816,3.601074,-37.353516,-2.136230
937,-0.499023,-0.869629,-0.284668,13.122559,-31.738281,-4.272461
938,-0.430176,-0.863281,-0.286133,24.658203,-41.564941,-1.159668
939,-0.271973,-0.985840,-0.781738,62.744141,-65.429688,8.728027
940,-0.170898,-1.000488,-0.859375,79.833984,-53.100586,16.174316
941,-0.214355,-1.020996,-0.557617,69.946289,-21.728516,21.545410
942,-0.274414,-0.986816,-0.460938,60.546875,-9.155273,5.126953
943,-0.247070,-0.843262,-0.343262,68.603516,3.662109,-8.178711
944,-0.228516,-0.713867,-0.217773,90.026855,11.352539,-14.587402
945,-0.230469,-0.455078,0.239746,87.463379,-8.605957,-11.535645
946,-0.265625,-0.421875,0.288086,68.359375,-19.287109,-7.324219
947,-0.313477,-0.400391,0.327637,45.410156,-27.038574,-5.065918
948,-0.382812,-0.385742,0.329590,17.272949,-33.020020,-5.737305
949,-0.514160,-0.436035,0.063477,-30.517578,-32.531738,-24.597168
950,-0.507324,-0.467773,-0.085938,-45.898438,-27.221680,-32.226562
951,-0.444336,-0.545410,-0.333984,-57.189941,-24.536133,-31.616211
952,-0.404297,-0.630371,-0.477051,-46.752930,-25.817871,-27.099609
953,-0.364258,-0.726562,-0.606445,-24.536133,-26.611328,-20.690918
954,-0.340332,-0.845215,-0.704102,7.324219,-25.695801,-12.878418
955,-0.412598,-1.115723,-0.689941,79.833984,-14.648438,-1.647949
956,-0.504883,-1.213379,-0.548340,107.788086,-7.934570,-2.685547
957,-0.688477,-1.226074,-0.237305,101.684570,-9.582520,-7.019043
958,-0.666016,-1.130859,-0.184570,63.476562,-15.869141,-9.521484
959,-0.594238,-1.033203,-0.222656,24.841309,-22.216797,-11.535645
960,-0.544434,-0.927246,-0.298828,-5.371094,-26.489258,-13.488770
961,-0.408203,-0.637695,-0.268066,-30.700684,-27.404785,-20.263672
962,-0.387207,-0.603027,-0.262695,-31.555176,-29.846191,-26.550293
963,-0.348633,-0.657227,-0.315430,-23.437500,-29.296875,-32.165527
964,-0.350586,-1.049316,-0.396484,-8.239746,-24.902344,-23.925781
965,-0.422363,-1.417969,-0.583008,8.728027,-15.075684,-20.385742
966,-0.499512,-1.555176,-0.438965,48.217773,3.784180,-26.672363
967,-0.630371,-1.189453,0.169922,125.610352,-1.831055,0.061035
968,-0.710938,-1.053223,0.346191,103.271484,-10.864258,15.808105
969,-0.804199,-0.933594,0.392578,51.757812,-16.113281,18.920898
970,-0.842773,-0.744629,0.238281,6.896973,-40.832520,10.925293
971,-0.761230,-0.670410,0.197266,11.718750,-48.278809,-0.732422
972,-0.671875,-0.607910,0.204590,12.817383,-52.307129,-12.390137
973,-0.542969,-0.537109,0.194824,-1.831055,-54.687500,-30.029297
974,-0.492188,-0.541504,0.178711,-7.141113,-53.161621,-33.264160
975,-0.466309,-0.572754,0.191895,-10.681152,-49.865723,-32.165527
976,-0.413086,-0.677246,0.212402,-31.250000,-41.015625,-23.559570
977,-0.819824,-1.137207,-0.196777,-14.892578,-23.071289,-38.635254
978,-0.764648,-1.121094,-0.203613,-9.033203,-22.399902,-33.752441
979,-0.534180,-1.043945,0.068848,-2.929688,-16.845703,-27.221680
980,-0.650879,-1.202637,0.076172,1.037598,-21.606445,-13.671875
981,-0.634766,-1.174316,0.115234,-9.216309,-27.770996,-13.916016
982,-0.583008,-1.090820,0.221680,-36.376953,-31.982422,-21.545410
983,-0.386230,-0.761230,0.274902,-114.624023,-49.804688,-22.644043
984,-0.352539,-0.708008,0.213867,-141.723633,-63.171387,-16.601562
985,-0.311035,-0.674316,0.090820,-153.686523,-78.430176,-12.573242
986,-0.364258,-0.738281,-0.287598,-121.276855,-101.745605,-12.695312
987,-0.326660,-0.703125,-0.479980,-96.252441,-97.167969,-15.930176
988,-0.320312,-0.718262,-0.642578,-36.987305,-60.913086,-12.817383
989,-0.323730,-0.661133,-0.578613,-7.446289,-49.133301,-6.347656
990,-0.336914,-0.763672,-0.556641,15.747070,-39.367676,-4.211426
991,-0.343750,-0.766113,-0.454102,26.550293,-28.076172,-2.624512
992,-0.351562,-0.822754,-0.328125,17.395020,-8.239746,6.469727
993,-0.347168,-0.830566,-0.330566,7.995605,1.586914,11.901855
994,-0.345703,-0.817871,-0.337891,-0.976562,13.427734,15.991211
995,-0.364258,-0.787109,-0.292969,-22.888184,26.489258,18.493652
996,-0.365723,-0.801758,-0.282227,-32.592773,25.695801,18.188477
997,-0.375000,-0.886230,-0.262695,-51.086426,10.498047,13.122559
998,-0.366699,-0.887207,-0.325195,-52.673340,1.708984,17.944336
999,-0.396484,-0.955566,-0.313477,-53.100586,-10.009766,16.906738
1000,-0.394531,-1.006836,-0.351562,-48.461914,-23.803711,13.671875
1001,-0.395020,-1.082031,-0.384277,-43.151855,-26.306152,13.366699
1002,-0.394531,-1.129395,-0.409668,-36.987305,-22.583008,9.887695
1003,-0.390625,-1.219727,-0.291992,-18.005371,-10.253906,0.854492
1004,-0.299805,-0.977051,-0.487305,-15.197754,-7.812500,7.263184
1005,-0.355957,-0.984863,-0.470703,-16.845703,21.606445,19.348145
1006,-0.395020,-0.949707,-0.583008,-22.399902,38.452148,22.460938
1007,-0.405762,-0.940918,-0.580566,-24.841309,51.208496,19.042969
1008,-0.407715,-0.883789,-0.505859,-37.475586,55.480957,15.258789
1009,-0.442871,-0.893555,-0.472168,-73.730469,33.264160,12.939453
1010,-0.537598,-1.034668,-0.565918,-83.251953,26.550293,18.798828
1011,-0.534180,-1.084473,-0.500000,-88.256836,22.766113,21.911621
1012,-0.544922,-1.186035,-0.438965,-86.242676,8.972168,23.071289
1013,-0.522949,-1.189941,-0.448730,-75.561523,4.577637,17.517090
1014,-0.442383,-1.062012,-0.434570,-62.133789,7.751465,16.052246
1015,-0.425781,-0.800781,-0.312988,-36.437988,28.503418,18.127441
1016,-0.454590,-0.699707,-0.274902,-26.062012,40.832520,16.906738
1017,-0.491211,-0.634277,-0.339355,-7.873535,58.349609,17.639160
1018,-0.672852,-0.613281,-0.251953,47.058105,94.116211,17.761230
1019,-0.765625,-0.551758,-0.100586,61.157227,104.858398,17.028809
1020,-0.874023,-0.590820,0.083496,61.889648,99.060059,18.493652
1021,-0.825684,-0.581543,0.257324,41.076660,37.292480,11.230469
1022,-0.827148,-0.605469,0.270996,19.470215,-4.333496,12.512207
1023,-0.813965,-0.639160,0.164551,-1.892090,-42.236328,12.390137
1024,-0.743652,-0.712891,0.044922,-23.132324,-84.716797,12.084961
1025,-0.674805,-0.685547,0.056641,-28.808594,-103.881836,11.413574
1026,-0.619141,-0.779297,-0.129883,-46.630859,-130.371094,16.723633
1027,-0.400879,-0.898438,-0.724609,-100.830078,-132.873535,22.338867
1028,-0.275391,-0.894043,-0.970215,-118.713379,-104.492188,27.526855
1029,-0.268066,-0.780273,-0.784668,-100.891113,-61.828613,40.893555
1030,-0.328613,-0.837402,-0.708496,-87.768555,-49.926758,42.541504
1031,-0.198730,-0.650391,-0.704102,-66.650391,-22.888184,34.057617
1032,-0.239746,-0.554688,-0.507812,-10.986328,41.442871,25.756836
1033,-0.257812,-0.486816,-0.339844,8.544922,62.561035,12.451172
1034,-0.244141,-0.389160,-0.113281,14.770508,67.810059,-0.366211
1035,-0.298340,-0.291992,0.107910,1.159668,39.611816,-16.723633
1036,-0.355469,-0.292969,0.053711,-9.826660,20.385742,-24.597168
1037,-0.520996,-0.402832,-0.173340,-10.803223,3.356934,-43.334961
1038,-0.400879,-0.336914,-0.546387,18.615723,-29.663086,-65.185547
1039,-0.383789,-0.425293,-0.734863,40.283203,-38.818359,-73.059082
1040,-0.343750,-0.527344,-0.843750,62.072754,-38.330078,-75.195312
1041,-0.254395,-0.720703,-0.772949,112.060547,-26.245117,-60.485840
1042,-0.215820,-0.867676,-0.677246,126.770020,-21.179199,-47.790527
1043,-0.273438,-1.077148,-0.573242,133.605957,-17.333984,-29.541016
1044,-0.678223,-1.523926,-0.265137,103.088379,-27.160645,19.653320
1045,-0.914062,-1.501465,-0.170898,58.593750,-54.138184,36.621094
1046,-1.011719,-1.217285,-0.259277,30.822754,-74.829102,43.945312
1047,-0.994629,-0.831543,-0.307617,24.719238,-70.434570,40.161133
1048,-0.869141,-0.389648,-0.118652,-21.667480,-57.739258,0.366211
1049,-0.749512,-0.326660,-0.278809,-46.691895,-48.522949,-18.615723
1050,-0.740723,-0.488770,-0.371582,-38.879395,-38.391113,-16.113281
1051,-0.771973,-1.213867,-0.822754,-24.353027,-25.146484,-2.075195
1052,-0.760742,-1.082520,-0.742676,61.462402,-3.173828,-2.197266
1053,-0.644531,-0.914551,-0.286133,150.512695,9.826660,1.159668
1054,-0.721680,-0.922852,0.119629,174.865723,10.498047,17.333984
1055,-0.777832,-1.144043,0.238770,104.492188,14.343262,-25.817871
1056,-0.715332,-1.119629,0.235352,70.556641,22.155762,-63.049316
1057,-0.598633,-1.060059,0.237305,41.687012,27.893066,-94.055176
1058,-0.474121,-0.961426,0.332520,-0.488281,19.775391,-111.999512
1059,-0.385742,-0.925781,0.252930,-20.507812,21.606445,-110.412598
1060,-0.297363,-0.883301,0.160645,-28.808594,28.320312,-100.402832
1061,-0.258789,-0.825195,0.176758,-16.540527,22.705078,-62.377930
1062,-0.265137,-0.805176,0.163086,-3.601074,8.361816,-44.860840
1063,-0.277344,-0.827148,0.139648,10.925293,-6.286621,-33.203125
1064,-0.311523,-0.855469,0.141602,22.827148,-21.850586,-24.597168
1065,-0.319824,-0.923340,0.128418,28.625488,-25.024414,-17.395020
1066,-0.310059,-0.964844,0.101562,33.081055,-25.817871,-10.559082
1067,-0.377930,-1.049316,0.190430,29.541016,-32.165527,-5.493164
1068,-0.379395,-1.013672,0.166016,12.268066,-40.100098,-11.840820
1069,-0.371582,-0.965332,0.115723,-0.610352,-48.522949,-16.357422
1070,-0.325195,-0.845215,0.019043,-17.089844,-57.678223,-19.653320
1071,-0.347168,-0.798828,-0.001465,-27.526855,-55.969238,-20.385742
1072,-0.386230,-0.775879,-0.024414,-37.231445,-54.748535,-22.766113
1073,-0.385254,-0.689941,0.168457,-55.908203,-66.772461,-21.240234
1074,-0.321289,-0.616699,0.351562,-85.876465,-92.285156,-18.432617
1075,-0.343750,-0.486816,0.196777,-136.413574,-110.412598,-2.136230
1076,-0.517090,-0.703125,-0.157715,-199.096680,-129.577637,6.469727
1077,-0.454590,-0.653320,-0.679688,-198.303223,-117.004395,2.319336
1078,-0.372070,-0.880371,-1.161621,-133.056641,-37.780762,10.742188
1079,-0.317383,-0.925293,-1.206055,-56.030273,-21.484375,8.666992
1080,-0.327637,-0.871582,-0.769531,-2.685547,-11.718750,11.901855
1081,-0.349121,-0.848633,-0.382324,-23.681641,-34.606934,11.840820
1082,-0.326660,-0.846191,-0.396484,-45.349121,-41.442871,11.230469
1083,-0.263184,-0.862305,-0.466309,-60.241699,-44.860840,5.187988
1084,-0.234863,-0.881836,-0.482422,-56.884766,-47.119141,1.647949
1085,-0.224609,-0.914062,-0.491211,-51.696777,-49.255371,-1.892090
1086,-0.201172,-0.925781,-0.420898,-61.340332,-53.466797,-7.080078
1087,-0.152832,-0.984375,-0.501953,-64.880371,-52.612305,-9.155273
1088,-0.134277,-1.022461,-0.537598,-60.668945,-48.767090,-10.131836
1089,-0.124512,-0.993164,-0.548340,-51.025391,-31.677246,-3.845215
1090,-0.161133,-0.960938,-0.573730,-42.968750,-19.836426,3.051758
1091,-0.209961,-0.915039,-0.553223,-32.104492,-5.798340,12.023926
1092,-0.302734,-0.905762,-0.523438,-29.724121,7.446289,19.531250
1093,-0.423340,-0.849121,-0.545410,-38.635254,24.108887,22.888184
1094,-0.477539,-0.829590,-0.560547,-47.302246,29.724121,22.338867
1095,-0.517578,-0.841797,-0.564941,-60.485840,31.188965,24.353027
1096,-0.528809,-1.032227,-0.572266,-92.224121,30.944824,43.640137
1097,-0.576660,-1.146973,-0.560547,-113.647461,31.433105,50.781250
1098,-0.728027,-1.421387,-0.615234,-126.525879,34.912109,31.555176
1099,-0.466797,-1.126465,-0.575684,-97.839355,16.662598,16.296387
1100,-0.379883,-0.917480,-0.530762,-83.679199,5.371094,2.563477
1101,-0.288574,-0.790039,-0.414062,-75.073242,-1.464844,-7.202148
1102,-0.297852,-0.741699,-0.332031,-69.702148,-11.657715,-13.061523
1103,-0.406250,-0.812500,-0.271973,-40.466309,-24.414062,-26.367188
1104,-0.495117,-0.839355,-0.243164,-14.831543,-36.132812,-30.212402
1105,-0.595215,-0.967773,-0.289551,40.527344,-7.019043,-19.165039
1106,-0.714844,-1.128906,-0.050293,58.776855,10.375977,-13.000488
1107,-0.762695,-1.161621,0.221191,53.588867,8.544922,-22.277832
1108,-0.680664,-1.073242,0.319336,31.616211,-4.028320,-32.165527
1109,-0.509277,-0.668945,0.423828,-17.822266,-52.795410,-31.799316
1110,-0.508789,-0.682617,0.382812,-33.691406,-92.895508,-28.503418
1111,-0.480957,-0.671387,0.184570,-43.212891,-122.985840,-30.090332
1112,-0.385254,-0.994141,-0.875488,-85.632324,-169.738770,-23.315430
1113,-0.409180,-1.215820,-1.569336,-113.220215,-146.545410,-27.832031
1114,-0.299316,-0.798828,-1.167480,-101.257324,-114.318848,-11.657715
1115,-0.143066,-0.663086,-0.659668,-68.054199,-62.011719,-19.287109
1116,-0.155762,-0.626465,-0.523926,-36.926270,-47.485352,-18.920898
1117,-0.164062,-0.576172,-0.382812,-6.835938,-33.508301,-23.498535
1118,-0.187500,-0.483398,-0.064453,20.324707,-20.019531,-30.395508
1119,-0.229004,-0.454590,0.129395,20.324707,-28.320312,-30.334473
1120,-0.287109,-0.445312,0.187012,10.803223,-42.785645,-30.334473
1121,-0.291504,-0.437012,0.133789,-5.493164,-50.048828,-34.240723
1122,-0.440918,-0.479492,0.000000,-39.184570,-62.194824,-40.954590
1123,-0.457520,-0.468750,-0.123535,-43.029785,-68.603516,-48.522949
1124,-0.396484,-0.429688,-0.231934,-42.297363,-76.904297,-52.856445
1125,-0.344727,-0.478516,-0.458008,-24.353027,-88.317871,-50.720215
1126,-0.310059,-0.511230,-0.533203,-4.272461,-95.275879,-48.522949
1127,-0.870117,-0.962402,-1.015625,33.203125,-93.627930,-60.546875
1128,-0.422852,-0.903320,-0.802734,99.975586,-95.275879,-66.284180
1129,-0.412109,-1.111328,-0.805664,121.337891,-88.562012,-60.363770
1130,-0.439453,-1.361816,-0.755371,124.633789,-65.979004,-47.973633
1131,-0.548828,-1.507812,-0.478516,100.891113,-40.527344,-36.804199
1132,-0.704590,-1.166992,-0.133301,-8.544922,-38.085938,-38.513184
1133,-0.693359,-0.951660,-0.215332,-38.452148,-39.978027,-43.457031
1134,-0.679199,-0.788086,-0.255371,-48.156738,-52.490234,-44.616699
1135,-0.665039,-0.641113,-0.194336,-38.452148,-87.341309,-40.100098
1136,-0.674316,-0.667969,-0.134277,-33.569336,-98.449707,-36.193848
1137,-0.658691,-0.723145,-0.101074,-39.123535,-109.863281,-32.897949
1138,-0.555664,-1.024902,-0.507324,-54.077148,-136.108398,-24.047852
1139,-0.459961,-0.999512,-0.853516,-39.306641,-123.840332,-25.085449
1140,-0.448242,-0.998047,-0.710938,-10.925293,-97.106934,-24.047852
1141,-0.407715,-0.932617,-0.478027,14.770508,-62.500000,-30.029297
1142,-0.446289,-0.938965,0.079590,11.962891,-35.644531,-36.071777
1143,-0.489746,-0.990723,0.111816,-4.211426,-34.851074,-44.616699
1144,-0.502930,-1.065430,-0.018066,-23.132324,-18.859863,-60.119629
1145,-0.505371,-1.090820,-0.030762,-23.986816,-14.282227,-63.842773
1146,-0.488770,-1.088867,-0.008301,-19.714355,-7.263184,-66.345215
1147,-0.471191,-1.042969,0.047363,-14.709473,-4.394531,-65.429688
1148,-0.426270,-0.895508,0.152344,-6.896973,-27.587891,-48.828125
1149,-0.391113,-0.841797,0.117676,1.037598,-45.776367,-36.560059
1150,-0.348633,-0.834473,0.167480,6.286621,-71.533203,-26.489258
1151,-0.307129,-0.794434,0.189941,-8.911133,-79.101562,-30.944824
1152,-0.257812,-0.829102,0.127930,-22.216797,-85.693359,-30.395508
1153,-0.181152,-0.854980,0.007812,-42.480469,-83.435059,-32.287598
1154,-0.198730,-0.896484,-0.008789,-46.875000,-81.054688,-34.301758
1155,-0.205078,-0.940918,-0.073242,-48.278809,-74.829102,-30.517578
1156,-0.262695,-1.007324,-0.021484,-49.133301,-72.570801,-28.564453
1157,-0.339844,-0.994629,0.006836,-56.701660,-81.420898,-24.719238
1158,-0.381836,-1.016602,-0.029785,-62.866211,-92.224121,-24.169922
1159,-0.404297,-0.934570,-0.140625,-64.270020,-108.642578,-23.986816
1160,-0.419434,-0.910645,-0.193848,-62.194824,-112.060547,-23.803711
1161,-0.403320,-0.836914,-0.216309,-56.518555,-111.938477,-20.812988
1162,-0.402832,-0.806152,-0.227539,-49.316406,-112.487793,-22.644043
1163,-0.334473,-0.775879,-0.247559,-48.217773,-121.032715,-29.357910
1164,-0.315918,-0.847656,-0.320312,-45.288086,-128.356934,-28.930664
1165,-0.259766,-0.936035,-0.574219,-24.169922,-119.812012,-25.695801
1166,-0.255371,-0.915039,-0.460938,-15.258789,-110.290527,-23.010254
1167,-0.270020,-0.905762,-0.400391,-21.240234,-97.717285,-20.019531
1168,-0.297363,-0.898926,-0.352539,-47.790527,-74.462891,-14.343262
1169,-0.297363,-0.903320,-0.390625,-56.518555,-66.162109,-11.596680
1170,-0.300293,-0.911133,-0.428711,-61.035156,-58.044434,-9.948730
1171,-0.302734,-0.917480,-0.451172,-62.011719,-51.818848,-8.605957
1172,-0.297852,-0.935547,-0.471680,-54.565430,-49.560547,-6.408691
1173,-0.300293,-0.940430,-0.431152,-51.513672,-50.109863,-5.798340
1174,-0.310547,-0.950684,-0.412598,-52.429199,-50.964355,-5.371094
1175,-0.315430,-0.973633,-0.424805,-54.138184,-50.415039,-5.676270
1176,-0.310059,-0.975098,-0.431641,-52.490234,-48.767090,-5.004883
1177,-0.309082,-0.967773,-0.422852,-49.621582,-46.997070,-3.112793
1178,-0.310059,-0.951660,-0.407715,-46.813965,-44.921875,-0.549316
1179,-0.325195,-0.935547,-0.367188,-43.640137,-37.048340,5.371094
1180,-0.351074,-0.936035,-0.359375,-45.104980,-33.203125,7.934570
1181,-0.391602,-0.923340,-0.379395,-48.767090,-26.123047,12.084961
1182,-0.420898,-0.917969,-0.392090,-53.222656,-24.047852,13.916016
1183,-0.446289,-0.902344,-0.419922,-56.396484,-20.385742,14.526367
1184,-0.488770,-0.911133,-0.442383,-60.119629,-19.287109,14.038086
1185,-0.458496,-0.897461,-0.517090,-61.523438,-19.165039,15.441895
1186,-0.429199,-0.911621,-0.527832,-64.575195,-16.723633,18.005371
1187,-0.418945,-0.945312,-0.538086,-71.289062,-15.747070,19.775391
1188,-0.414062,-1.008789,-0.512207,-87.036133,-21.179199,14.892578
1189,-0.362305,-0.986328,-0.494629,-91.735840,-27.404785,7.263184
1190,-0.312988,-0.963379,-0.467773,-91.308594,-35.278320,1.464844
1191,-0.240723,-0.875977,-0.386719,-91.186523,-47.241211,-8.544922
1192,-0.229492,-0.833008,-0.372559,-91.003418,-49.926758,-14.099121
1193,-0.219238,-0.770020,-0.336914,-88.623047,-50.598145,-20.202637
1194,-0.240723,-0.743164,-0.240234,-90.209961,-55.358887,-25.512695
1195,-0.284668,-0.676758,-0.310547,-87.646484,-61.462402,-26.245117
1196,-0.338379,-0.741211,-0.333008,-68.969727,-52.978516,-22.583008
1197,-0.392578,-0.754395,-0.358887,-6.103516,-20.629883,-8.789062
1198,-0.540039,-0.840820,-0.145996,25.817871,-5.859375,1.037598
1199,-0.615234,-0.893555,0.104492,32.958984,-8.789062,1.892090
1200,-0.646973,-0.887207,0.329590,13.000488,-28.503418,1.892090
1201,-0.683105,-0.820312,0.035156,-52.185059,-62.072754,-3.417969
1202,-0.691406,-0.776855,-0.004395,-60.974121,-69.824219,-11.840820
1203,-0.638184,-0.753906,-0.298340,-56.152344,-111.877441,-20.019531
1204,-0.638184,-0.854980,-0.388184,-46.386719,-156.494141,-18.920898
1205,-0.535156,-0.757324,-0.923340,-44.189453,-177.246094,-13.671875
1206,-0.455078,-0.819824,-0.985352,-31.799316,-132.507324,-8.361816
1207,-0.416504,-0.700195,-0.816406,-27.770996,-98.510742,-6.896973
1208,-0.400879,-0.641113,-0.615234,-15.075684,-75.500488,-3.967285
1209,-0.410156,-0.670898,-0.503906,5.737305,-66.162109,-4.272461
1210,-0.355957,-0.624512,-0.386719,28.686523,-40.649414,-13.305664
1211,-0.356445,-0.641113,-0.369629,32.287598,-28.198242,-14.892578
1212,-0.375000,-0.720215,-0.329102,28.503418,-17.883301,-18.249512
1213,-0.409668,-0.824219,-0.278809,5.798340,-0.366211,-34.606934
1214,-0.416504,-0.818848,-0.263672,-4.821777,1.953125,-40.039062
1215,-0.423828,-0.781250,-0.271973,-8.422852,3.051758,-40.161133
1216,-0.437988,-0.623535,-0.157227,-12.451172,-0.488281,-30.456543
1217,-0.451660,-0.581055,-0.086426,-23.925781,-7.995605,-24.597168
1218,-0.454102,-0.570801,-0.086914,-39.855957,-17.456055,-21.423340
1219,-0.472656,-0.584473,-0.267090,-45.898438,-29.968262,-17.456055
1220,-0.505859,-0.601074,-0.345703,-35.217285,-33.508301,-17.639160
1221,-0.523438,-0.582520,-0.391113,-19.348145,-35.766602,-19.165039
1222,-0.548828,-0.590332,-0.374023,7.934570,-43.457031,-22.644043
1223,-0.522949,-0.594238,-0.366211,18.066406,-50.109863,-26.000977
1224,-0.486328,-0.614258,-0.402344,26.489258,-55.603027,-28.686523
1225,-0.458496,-0.644531,-0.413086,34.790039,-60.424805,-29.479980
1226,-0.403809,-0.739258,-0.481934,44.433594,-66.162109,-24.475098
1227,-0.424805,-0.831055,-0.533691,45.837402,-62.561035,-20.996094
1228,-0.509277,-1.109375,-0.539062,35.949707,-41.931152,-23.559570
1229,-0.480469,-1.188965,-0.497559,25.024414,-32.897949,-29.907227
1230,-0.406738,-1.168945,-0.453613,15.808105,-30.334473,-33.264160
1231,-0.358887,-1.081543,-0.379883,10.070801,-33.691406,-33.813477
1232,-0.395020,-0.926758,-0.383789,2.502441,-40.832520,-35.156250
1233,-0.444336,-0.936523,-0.407715,4.089355,-41.076660,-32.531738
1234,-0.504883,-1.008301,-0.407227,11.230469,-36.254883,-26.855469
1235,-0.626953,-1.043457,-0.269531,24.536133,-17.150879,-14.160156
1236,-0.666992,-0.929199,-0.131836,27.343750,-12.512207,-3.417969
1237,-0.734863,-0.817871,-0.026367,33.813477,-20.202637,16.784668
1238,-0.896973,-0.661621,0.048340,62.316895,-50.598145,41.687012
1239,-0.918457,-0.647461,0.158203,60.852051,-60.546875,35.644531
1240,-0.839844,-0.631836,0.153809,48.217773,-70.739746,23.986816
1241,-0.718750,-0.599121,0.119141,11.535645,-64.819336,3.906250
1242,-0.703125,-0.593262,0.080078,3.051758,-60.241699,-4.638672
1243,-0.748047,-0.767090,0.006836,24.169922,-52.917480,-32.104492
1244,-0.645020,-0.724609,0.062500,40.161133,-44.494629,-48.095703
1245,-0.643066,-0.782715,0.055176,49.804688,-42.968750,-56.152344
1246,-0.588379,-0.797363,0.110840,60.729980,-43.823242,-61.584473
1247,-0.483887,-0.828125,0.172363,66.467285,-44.067383,-55.664062
1248,-0.436523,-0.862793,0.135254,55.053711,-37.597656,-49.316406
1249,-0.422852,-0.937500,0.111328,16.906738,-18.371582,-37.963867
1250,-0.477051,-0.958008,0.209473,-8.972168,-14.221191,-44.006348
1251,-0.448730,-0.909668,0.092773,-34.973145,-7.812500,-48.339844
1252,-0.468750,-0.966797,0.101074,-43.029785,-4.028320,-48.767090
1253,-0.451172,-1.002930,0.100586,-42.419434,-6.652832,-52.062988
1254,-0.399414,-1.023438,0.113281,-48.950195,-19.165039,-52.673340
1255,-0.369629,-1.014648,0.107910,-57.189941,-28.381348,-48.461914
1256,-0.350098,-1.017090,0.162598,-64.941406,-41.748047,-43.762207
1257,-0.313477,-0.942871,0.159668,-83.618164,-85.327148,-30.334473
1258,-0.295410,-0.805176,0.070801,-91.308594,-99.853516,-24.108887
1259,-0.289062,-0.754395,-0.005371,-91.857910,-108.886719,-17.761230
1260,-0.276367,-0.743652,-0.113770,-73.486328,-118.591309,-11.901855
1261,-0.340820,-0.815918,-0.193359,-70.434570,-111.572266,-10.314941
1262,-0.382812,-0.859863,-0.255371,-70.617676,-97.106934,-12.145996
1263,-0.372559,-0.878906,-0.369141,-58.715820,-60.363770,-12.939453
1264,-0.375488,-0.826172,-0.447754,-51.452637,-46.386719,-9.094238
1265,-0.390625,-0.842773,-0.436035,-53.039551,-27.099609,-1.770020
1266,-0.428223,-0.829590,-0.420898,-50.048828,-10.314941,6.530762
1267,-0.415039,-0.809082,-0.388184,-48.034668,-12.084961,9.460449
1268,-0.419434,-0.811523,-0.377930,-52.795410,-17.700195,12.207031
1269,-0.407227,-0.836426,-0.453125,-68.542480,-29.113770,12.145996
1270,-0.380859,-0.864258,-0.522949,-73.547363,-26.977539,12.084961
1271,-0.370117,-0.893066,-0.531738,-69.396973,-21.911621,11.657715
1272,-0.385742,-0.938965,-0.420410,-65.368652,-22.216797,8.972168
1273,-0.360352,-0.974609,-0.427246,-65.246582,-20.996094,5.371094
1274,-0.356445,-1.035156,-0.433105,-64.636230,-20.568848,2.502441
1275,-0.329102,-1.139160,-0.485352,-50.964355,-17.028809,-5.737305
1276,-0.320312,-1.135742,-0.346680,-43.701172,-16.235352,-7.263184
1277,-0.305176,-1.118652,-0.371094,-46.020508,-9.033203,-2.563477
1278,-0.298340,-1.042969,-0.481934,-49.011230,11.901855,15.869141
1279,-0.286133,-0.971191,-0.490723,-52.673340,26.306152,25.329590
1280,-0.328613,-0.970703,-0.498047,-60.485840,39.306641,29.235840
1281,-0.379883,-0.944336,-0.444336,-81.054688,43.518066,22.216797
1282,-0.420410,-0.982910,-0.466309,-91.796875,36.071777,17.211914
1283,-0.434570,-1.030273,-0.447754,-104.675293,26.428223,13.305664
1284,-0.463867,-1.088867,-0.487305,-114.196777,16.357422,10.253906
1285,-0.531738,-1.182617,-0.635254,-105.651855,1.647949,5.187988
1286,-0.571289,-1.186035,-0.574219,-77.758789,-0.854492,2.014160
1287,-0.560547,-1.061035,-0.472168,-51.635742,-3.234863,0.976562
1288,-0.595215,-0.834473,-0.391602,-9.704590,17.639160,4.089355
1289,-0.641113,-0.724609,-0.317871,10.742188,36.437988,5.981445
1290,-0.776855,-0.715332,-0.222656,32.104492,56.762695,2.685547
1291,-0.828613,-0.610352,0.138184,68.054199,64.208984,-2.929688
1292,-0.740234,-0.526855,0.194336,68.664551,45.288086,-3.906250
1293,-0.759766,-0.521484,0.281250,60.241699,19.653320,2.136230
1294,-0.717285,-0.487793,0.270020,20.385742,-49.133301,14.465332
1295,-0.691406,-0.514648,0.127930,1.586914,-76.049805,18.310547
1296,-0.675781,-0.550293,0.088379,-14.038086,-97.229004,22.521973
1297,-0.649902,-0.805664,-0.266113,-56.457520,-158.264160,23.193359
1298,-0.583008,-1.006836,-0.882324,-77.880859,-159.301758,16.845703
1299,-0.441406,-1.003418,-1.297363,-91.247559,-109.375000,22.644043
1300,-0.416016,-1.045410,-0.945801,-51.574707,-33.874512,18.798828
1301,-0.362305,-0.893555,-0.697266,-46.447754,1.831055,9.094238
1302,-0.378418,-0.826172,-0.575195,-32.348633,32.470703,-3.173828
1303,-0.226562,-0.577148,-0.166504,9.155273,69.885254,-23.132324
1304,-0.226562,-0.408691,0.231934,23.620605,30.090332,-15.686035
1305,-0.258789,-0.386719,0.199707,17.822266,10.620117,-11.352539
1306,-0.286133,-0.330078,0.208008,4.394531,-1.953125,-9.216309
1307,-0.322266,-0.312500,0.152344,-12.023926,-13.671875,-9.338379
1308,-0.374023,-0.361816,-0.002930,-19.958496,-23.925781,-15.441895
1309,-0.322266,-0.409668,-0.289551,-9.277344,-44.372559,-30.944824
1310,-0.308594,-0.421875,-0.410156,0.488281,-51.757812,-31.372070
1311,-0.815430,-0.895508,-0.965820,47.302246,-56.091309,-44.128418
1312,-0.462402,-0.635254,-0.781250,80.444336,-57.922363,-50.720215
1313,-0.312012,-0.748047,-0.674805,104.675293,-58.227539,-52.673340
1314,-0.343262,-1.078125,-0.662109,121.398926,-34.606934,-42.358398
1315,-0.395996,-1.286621,-0.597656,126.953125,-17.089844,-25.573730
1316,-0.546875,-1.504395,-0.418945,119.201660,0.915527,-9.948730
1317,-0.719238,-1.627441,-0.301270,66.894531,9.033203,-6.530762
1318,-0.828125,-1.420898,-0.296875,-12.573242,-15.258789,-1.525879
1319,-0.831055,-0.787109,-0.336914,-8.300781,-24.536133,3.479004
1320,-0.761719,-0.585938,-0.290527,8.911133,-39.184570,-2.990723
1321,-0.684082,-0.547852,-0.248047,13.854980,-39.611816,-3.051758
1322,-0.616211,-0.639648,-0.242676,13.610840,-36.743164,2.014160
1323,-0.606445,-0.829590,-0.243652,9.826660,-36.560059,11.352539
1324,-0.593750,-1.014648,-0.316406,23.986816,-22.094727,17.211914
1325,-0.602539,-0.927734,-0.166504,42.846680,-13.000488,12.268066
1326,-0.583984,-0.865723,-0.029785,50.048828,-4.760742,3.479004
1327,-0.570801,-0.855469,0.058105,45.349121,1.159668,-22.827148
1328,-0.587891,-0.903320,0.106934,44.250488,-2.563477,-38.757324
1329,-0.575195,-0.937500,0.166016,44.494629,-6.652832,-51.147461
1330,-0.553223,-0.968262,0.255859,36.254883,-11.718750,-59.448242
1331,-0.499023,-0.908203,0.232422,28.320312,-11.413574,-55.786133
1332,-0.454102,-0.849609,0.212891,19.226074,-8.850098,-52.062988
1333,-0.394043,-0.732422,0.172852,7.751465,-1.037598,-42.114258
1334,-0.389160,-0.719727,0.157715,1.403809,1.892090,-39.672852
1335,-0.360840,-0.734375,0.108398,1.159668,3.784180,-37.353516
1336,-0.348633,-0.778809,0.021484,11.108398,3.906250,-28.564453
1337,-0.356445,-0.846191,-0.020996,18.371582,0.915527,-23.803711
1338,-0.383301,-0.966309,0.031738,24.597168,-6.042480,-23.986816
1339,-0.378906,-1.036621,0.087402,22.216797,-17.578125,-26.916504
1340,-0.360352,-1.073242,0.072266,-7.568359,-34.851074,-22.644043
1341,-0.402344,-1.176270,0.118652,-26.000977,-44.616699,-20.812988
1342,-0.415039,-1.155273,0.172363,-45.288086,-58.776855,-20.690918
1343,-0.371094,-0.924316,0.116211,-88.500977,-88.317871,-16.174316
1344,-0.356445,-0.855469,0.052734,-101.501465,-92.163086,-13.854980
1345,-0.351562,-0.792480,-0.016113,-104.370117,-97.839355,-12.634277
1346,-0.355957,-0.764648,-0.092773,-95.581055,-106.201172,-7.568359
1347,-0.352539,-0.752930,-0.174805,-89.782715,-106.506348,-5.126953
1348,-0.431641,-0.854980,-0.255859,-86.608887,-101.867676,-5.554199
1349,-0.353516,-0.854980,-0.498535,-64.636230,-75.500488,-10.131836
1350,-0.309570,-0.760254,-0.585938,-52.612305,-61.279297,-5.493164
1351,-0.317383,-0.893555,-0.553223,-37.780762,-49.011230,-4.394531
1352,-0.304688,-0.918945,-0.533691,-23.376465,-39.978027,-1.586914
1353,-0.309570,-0.901367,-0.402344,-18.920898,-29.418945,2.746582
1354,-0.311523,-0.890625,-0.375000,-22.888184,-25.146484,4.943848
1355,-0.315430,-0.875488,-0.342285,-27.526855,-20.874023,6.286621
1356,-0.316895,-0.882812,-0.291016,-34.545898,-16.540527,6.347656
1357,-0.317871,-0.896484,-0.264160,-35.705566,-17.639160,6.164551
1358,-0.331055,-0.933105,-0.248535,-38.574219,-22.155762,6.347656
1359,-0.341309,-0.953613,-0.259277,-40.893555,-22.705078,6.652832
1360,-0.355469,-0.968750,-0.270020,-43.273926,-21.606445,7.019043
1361,-0.368164,-0.980469,-0.284180,-44.555664,-19.775391,7.507324
1362,-0.389648,-0.982422,-0.267578,-60.058594,-17.822266,9.887695
1363,-0.397949,-0.987305,-0.300293,-61.218262,-16.967773,11.596680
1364,-0.400879,-0.974609,-0.364258,-58.227539,-16.906738,12.390137
1365,-0.400391,-0.928711,-0.384277,-54.504395,-14.953613,14.953613
1366,-0.436035,-0.885254,-0.438477,-45.837402,-18.493652,17.272949
1367,-0.450195,-0.864746,-0.445312,-44.555664,-20.812988,17.822266
1368,-0.480469,-0.883789,-0.538086,-41.076660,-22.644043,14.831543
1369,-0.437988,-0.867676,-0.531250,-41.320801,-20.141602,15.136719
1370,-0.412598,-0.871094,-0.522461,-46.630859,-14.160156,18.188477
1371,-0.390137,-0.903809,-0.472168,-64.758301,-0.427246,23.986816
1372,-0.370605,-0.909668,-0.474609,-77.636719,2.258301,25.573730
1373,-0.422363,-0.972656,-0.531738,-85.021973,5.310059,25.878906
1374,-0.388672,-1.037598,-0.517578,-86.364746,5.859375,21.667480
1375,-0.393066,-1.078613,-0.508789,-85.693359,5.065918,18.188477
1376,-0.400879,-1.111328,-0.448242,-86.059570,3.845215,14.587402
1377,-0.354004,-1.023438,-0.427246,-89.782715,-5.432129,9.582520
1378,-0.337402,-0.947266,-0.447754,-81.909180,-5.676270,6.225586
1379,-0.325684,-0.857422,-0.410645,-67.565918,-4.272461,0.366211
1380,-0.330078,-0.674316,-0.178223,-61.462402,-8.544922,-9.704590
1381,-0.346191,-0.616699,-0.198242,-64.270020,-9.338379,-11.779785
1382,-0.380371,-0.594238,-0.231934,-55.725098,-7.568359,-12.634277
1383,-0.496094,-0.613281,-0.195312,-24.291992,-7.629395,-12.084961
1384,-0.570312,-0.677246,-0.146484,-12.451172,-13.488770,-10.192871
1385,-0.631348,-0.738281,-0.069824,-4.394531,-25.390625,-7.324219
1386,-0.682129,-0.811035,-0.027832,-2.014160,-40.039062,-5.371094
1387,-0.750977,-0.941406,-0.219727,-0.732422,-84.350586,-2.929688
1388,-0.707520,-1.004883,-0.578125,19.897461,-113.647461,-1.525879
1389,-0.589844,-0.975098,-1.000000,27.282715,-112.182617,-4.333496
1390,-0.540039,-0.758301,-0.596191,50.109863,-50.598145,-10.070801
1391,-0.526367,-0.809082,-0.506348,43.395996,-47.485352,-13.122559
1392,-0.396484,-0.720215,-0.495117,30.090332,-29.541016,-12.512207
1393,-0.379883,-0.722168,-0.325195,14.343262,4.333496,-12.512207
1394,-0.349609,-0.696289,-0.250488,10.986328,9.582520,-18.615723
1395,-0.311523,-0.682617,-0.215820,13.183594,8.239746,-23.925781
1396,-0.287598,-0.736328,-0.203125,29.907227,-3.967285,-27.221680
1397,-0.291016,-0.753418,-0.178711,34.606934,-10.437012,-27.770996
1398,-0.315918,-0.762207,-0.168945,36.621094,-16.418457,-27.709961
1399,-0.343750,-0.773926,-0.135742,32.958984,-18.981934,-28.015137
1400,-0.387695,-0.721680,-0.170898,6.225586,-12.268066,-33.935547
1401,-0.391602,-0.635742,-0.159668,-5.432129,-6.958008,-33.264160
1402,-0.400391,-0.582520,-0.178223,-17.150879,-4.821777,-29.235840
1403,-0.400391,-0.557129,-0.242676,-22.277832,-5.065918,-24.597168
1404,-0.393066,-0.577637,-0.307617,-6.347656,-10.803223,-16.235352
1405,-0.411621,-0.602051,-0.266602,6.225586,-17.578125,-14.709473
1406,-0.463867,-0.682617,-0.248047,22.705078,-31.494141,-17.517090
1407,-0.468750,-0.705566,-0.220215,24.230957,-35.766602,-18.615723
1408,-0.484375,-0.685547,-0.241211,17.333984,-38.391113,-17.639160
1409,-0.526367,-0.633301,-0.272461,-9.948730,-45.959473,-15.808105
1410,-0.530273,-0.634766,-0.340332,-16.052246,-49.987793,-16.235352
1411,-0.541504,-0.654785,-0.393555,-17.822266,-53.771973,-16.540527
1412,-0.545410,-0.729980,-0.458496,-15.319824,-57.739258,-16.113281
1413,-0.530273,-0.784668,-0.471680,-12.939453,-56.762695,-15.686035
1414,-0.508789,-0.854980,-0.500488,-8.789062,-53.161621,-15.197754
1415,-0.419434,-1.019043,-0.481934,18.554688,-41.870117,-32.714844
1416,-0.363770,-1.026367,-0.500488,27.404785,-30.029297,-32.531738
1417,-0.379395,-1.039551,-0.531738,31.066895,-21.240234,-33.081055
1418,-0.342285,-1.009766,-0.500488,23.315430,-13.427734,-34.179688
1419,-0.294922,-0.905273,-0.489258,6.469727,-12.817383,-33.203125
1420,-0.320801,-0.869629,-0.505859,6.713867,-19.775391,-30.578613
1421,-0.398926,-0.917480,-0.542480,14.404297,-37.719727,-20.629883
1422,-0.423340,-0.992188,-0.550293,23.010254,-44.738770,-13.183594
1423,-0.489258,-1.092773,-0.557617,38.574219,-42.541504,-4.821777
1424,-0.582031,-1.196777,-0.515137,59.387207,-26.489258,-7.385254
1425,-0.655273,-1.144043,-0.174316,90.026855,16.479492,-18.188477
1426,-0.672852,-1.009766,-0.023438,85.937500,22.338867,-15.136719
1427,-0.689453,-0.863281,0.051270,67.016602,18.798828,-5.798340
1428,-0.793945,-0.708008,0.012695,31.250000,13.854980,-3.356934
1429,-0.816406,-0.655273,0.053711,21.667480,4.821777,-10.681152
1430,-0.795410,-0.658203,0.058594,19.226074,-8.972168,-16.845703
1431,-0.682129,-0.646484,0.106934,-4.089355,-18.615723,-31.555176
1432,-0.652832,-0.674316,0.093262,-22.705078,-17.822266,-35.827637
1433,-0.636719,-0.712402,0.081543,-38.513184,-15.869141,-35.766602
1434,-0.853516,-0.908203,-0.174316,-47.424316,-12.390137,-34.179688
1435,-0.498535,-0.827148,-0.093262,-12.817383,-14.526367,-35.217285
1436,-0.438477,-0.793457,-0.012207,0.183105,-21.301270,-24.047852
1437,-0.411133,-0.773438,-0.011719,2.807617,-26.977539,-12.390137
1438,-0.407227,-0.781250,-0.134766,5.554199,-12.390137,-2.014160
1439,-0.395996,-0.749023,-0.113281,8.666992,0.366211,-0.976562
1440,-0.409180,-0.818848,-0.058594,7.080078,12.084961,0.488281
1441,-0.436035,-0.925293,0.052734,-4.333496,22.277832,-8.483887
1442,-0.444824,-0.985352,0.031738,-10.742188,26.062012,-9.216309
1443,-0.511719,-1.113770,0.167480,-25.878906,15.197754,-11.352539
1444,-0.455078,-1.004883,0.120117,-35.644531,-2.136230,-9.216309
1445,-0.466309,-1.008301,0.072754,-47.119141,-23.742676,-6.042480
1446,-0.414062,-0.890137,-0.055664,-47.363281,-48.828125,-1.403809
1447,-0.478027,-0.826172,-0.434082,-17.028809,-77.209473,7.324219
1448,-0.496094,-0.844727,-0.605957,3.723145,-70.129395,1.525879
1449,-0.474609,-0.838379,-0.651367,24.963379,-52.612305,0.671387
1450,-0.452637,-0.804199,-0.725586,39.733887,-30.334473,4.089355
1451,-0.464844,-0.871094,-0.413574,43.090820,6.591797,2.685547
1452,-0.459961,-0.829102,-0.365723,31.250000,24.902344,3.173828
1453,-0.402832,-0.773438,-0.274414,10.070801,60.363770,3.540039
1454,-0.369141,-0.732422,-0.296387,-5.371094,79.956055,6.774902
1455,-0.368652,-0.817383,-0.146484,-37.963867,96.252441,9.033203
1456,-0.333984,-0.806152,-0.154297,-55.603027,91.308594,13.305664
1457,-0.325195,-0.804688,-0.161621,-67.932129,78.613281,18.981934
1458,-0.377930,-0.856445,-0.288086,-59.143066,42.053223,27.954102
1459,-0.410156,-0.887695,-0.407227,-41.748047,28.808594,32.226562
1460,-0.446289,-0.855469,-0.219727,-6.103516,9.643555,35.949707
1461,-0.455078,-0.830078,-0.203613,-3.295898,4.516602,37.475586
1462,-0.440918,-0.825195,-0.192871,-5.371094,6.164551,36.437988
1463,-0.420410,-0.820801,-0.200195,-9.399414,9.948730,34.362793
1464,-0.386719,-0.864258,-0.275391,-14.221191,10.864258,34.179688
1465,-0.373535,-0.888672,-0.332520,-14.648438,8.605957,34.545898
1466,-0.411621,-0.941406,-0.437988,-7.812500,5.676270,37.536621
1467,-0.439941,-0.947754,-0.473145,3.723145,5.920410,38.940430
1468,-0.452637,-0.918945,-0.480469,17.333984,6.774902,40.161133
1469,-0.459961,-0.920898,-0.483398,28.564453,11.291504,39.855957
1470,-0.424316,-0.894043,-0.478027,28.564453,34.545898,39.306641
1471,-0.406250,-0.876465,-0.445801,16.540527,46.508789,35.339355
1472,-0.399414,-0.882812,-0.426758,2.136230,54.260254,33.264160
1473,-0.405762,-0.894531,-0.408203,-11.840820,59.204102,35.034180
1474,-0.528809,-0.980957,-0.413574,-36.682129,68.176270,40.222168
1475,-0.612793,-1.030762,-0.378906,-46.875000,71.228027,41.381836
1476,-0.733398,-1.133301,-0.398926,-47.485352,71.411133,44.921875
1477,-0.769531,-1.218262,-0.501465,-33.569336,74.096680,49.926758
1478,-0.769043,-1.192871,-0.567383,-6.042480,84.350586,55.664062
1479,-0.794922,-1.143066,-0.378418,27.587891,88.623047,57.128906
1480,-0.707031,-0.758301,-0.138672,52.124023,81.787109,50.537109
1481,-0.667969,-0.622070,-0.074707,53.649902,81.420898,52.673340
1482,-0.605957,-0.455078,-0.032227,52.612305,78.063965,52.551270
1483,-0.563965,-0.374512,-0.029297,53.283691,72.692871,50.476074
1484,-0.576660,-0.356445,-0.026855,54.260254,62.500000,47.790527
1485,-0.570801,-0.328613,-0.048340,54.321289,44.677734,44.677734
1486,-0.638184,-0.370605,-0.128906,61.584473,-33.630371,53.100586
1487,-0.711914,-0.540039,-0.489746,59.814453,-55.175781,59.387207
1488,-0.764160,-0.612793,-0.557129,76.782227,-53.527832,61.096191
1489,-0.931152,-0.740723,-0.738281,90.820312,-16.784668,66.528320
1490,-0.867188,-0.758789,-0.768066,85.510254,18.615723,61.767578
1491,-0.910156,-0.827148,-0.662109,93.627930,47.607422,61.279297
1492,-0.759766,-0.813965,-0.430664,74.707031,97.351074,36.743164
1493,-0.614746,-0.741211,-0.298828,56.152344,121.215820,21.606445
1494,-0.500000,-0.657227,-0.153809,44.982910,130.859375,16.967773
1495,-0.477539,-0.637695,-0.016602,39.123535,126.220703,19.104004
1496,-0.493164,-0.657715,-0.022461,28.137207,104.797363,23.620605
1497,-0.497559,-0.665527,-0.035645,23.254395,100.341797,23.132324
1498,-0.498535,-0.657227,-0.069336,25.146484,87.219238,19.653320
1499,-0.500000,-0.632324,-0.051758,30.883789,76.965332,19.836426
1500,-0.505859,-0.634766,-0.020020,32.958984,62.927246,19.714355
1501,-0.438477,-0.588867,-0.052246,31.066895,29.418945,17.578125
1502,-0.414551,-0.580078,-0.140137,31.005859,22.460938,16.662598
1503,-0.416016,-0.538086,-0.194824,27.587891,22.338867,12.756348
1504,-0.433105,-0.536621,-0.257812,25.634766,23.132324,8.789062
1505,-0.425781,-0.533691,-0.367188,29.724121,22.033691,8.483887
1506,-0.429688,-0.533691,-0.393066,35.827637,21.362305,9.521484
1507,-0.442871,-0.525391,-0.404785,41.381836,20.080566,9.216309
1508,-0.459961,-0.574707,-0.418457,49.560547,16.479492,4.882812
1509,-0.531738,-0.645020,-0.469727,53.405762,13.916016,2.075195
1510,-0.264648,-0.553711,-0.396484,74.401855,7.629395,-20.690918
1511,-0.457520,-0.765625,-0.474121,80.566406,11.108398,-36.315918
1512,-0.449219,-0.831055,-0.487793,78.430176,15.258789,-39.367676
1513,-0.437500,-0.878906,-0.509766,70.129395,23.498535,-40.893555
1514,-0.467285,-0.955566,-0.532227,52.062988,39.916992,-39.794922
1515,-0.489258,-0.994141,-0.572266,37.414551,40.100098,-36.682129
1516,-0.502930,-1.009766,-0.630371,32.592773,36.376953,-30.456543
1517,-0.524902,-0.948730,-0.737305,49.926758,33.508301,-20.019531
1518,-0.526855,-0.869629,-0.651367,50.720215,34.484863,-16.967773
1519,-0.517578,-0.787598,-0.585449,44.555664,37.414551,-15.502930
1520,-0.542969,-0.768555,-0.506836,46.325684,40.649414,-13.732910
1521,-0.646973,-0.789062,-0.333496,55.236816,26.367188,-5.920410
1522,-0.702148,-0.842773,-0.324219,63.781738,15.686035,0.610352
1523,-0.758301,-0.867676,-0.265137,73.852539,4.333496,8.605957
1524,-0.847656,-0.920898,-0.160645,72.509766,-7.751465,14.709473
1525,-0.837402,-0.945312,-0.195312,58.593750,-2.563477,14.343262
1526,-0.838867,-0.973633,-0.219727,39.428711,10.375977,13.671875
1527,-0.720703,-0.919434,-0.236816,10.009766,27.709961,13.305664
1528,-0.646484,-0.792969,-0.270020,20.812988,32.226562,13.305664
1529,-0.596191,-0.691406,-0.196289,43.701172,37.963867,9.216309
1530,-0.433594,-0.479004,-0.087402,42.846680,39.123535,-13.977051
1531,-0.450684,-0.554688,-0.118164,47.668457,39.062500,-13.977051
1532,-0.504395,-0.639160,-0.108887,59.143066,38.574219,-11.108398
1533,-0.542969,-0.745117,-0.102051,80.078125,38.146973,-8.422852
1534,-0.592773,-0.886719,0.076172,113.647461,42.419434,-10.437012
1535,-0.596191,-0.899902,0.194336,111.145020,46.325684,-13.488770
1536,-0.593750,-0.899414,0.283691,91.613770,50.476074,-18.981934
1537,-0.530762,-0.835938,0.269531,35.461426,63.537598,-28.991699
1538,-0.505859,-0.808594,0.221680,16.235352,69.824219,-26.367188
1539,-0.587402,-0.873535,0.104980,12.207031,75.561523,-27.282715
1540,-0.470215,-0.783691,0.020996,14.038086,71.166992,-19.958496
1541,-0.473633,-0.816895,-0.014648,20.812988,66.650391,-13.000488
1542,-0.473145,-0.853027,-0.027344,25.695801,62.622070,-8.605957
1543,-0.475098,-0.895508,-0.041504,27.526855,62.561035,-6.591797
1544,-0.481445,-0.947266,-0.050781,25.756836,64.147949,-3.051758
1545,-0.496094,-0.972168,-0.084961,24.719238,66.040039,-1.281738
1546,-0.523926,-1.007324,-0.059082,22.155762,67.810059,-2.014160
1547,-0.505371,-1.001953,0.014160,5.981445,69.641113,-6.835938
1548,-0.476562,-0.971191,0.013184,-3.967285,65.612793,-6.958008
1549,-0.500488,-0.983887,0.078125,-9.704590,57.434082,-6.896973
1550,-0.423828,-0.910156,0.012207,-17.333984,46.752930,-6.652832
1551,-0.376465,-0.886719,-0.027344,-14.587402,40.710449,-5.432129
1552,-0.362793,-0.949707,-0.002441,-13.061523,37.292480,-3.112793
1553,-0.315918,-0.869629,0.056641,-16.235352,26.794434,-2.136230
1554,-0.303223,-0.913086,-0.021973,-36.132812,16.906738,2.075195
1555,-0.365234,-0.903809,-0.013672,-44.067383,13.061523,5.187988
1556,-0.398438,-0.961426,-0.001953,-44.128418,4.821777,8.239746
1557,-0.349121,-0.869629,-0.226074,-32.226562,0.732422,13.183594
1558,-0.330078,-0.887207,-0.314453,-31.494141,11.657715,16.784668
1559,-0.366699,-0.903320,-0.366699,-27.343750,20.446777,17.211914
1560,-0.415527,-0.920898,-0.462891,-17.517090,28.991699,16.784668
1561,-0.431641,-0.872559,-0.469238,7.629395,44.677734,16.174316
1562,-0.436523,-0.854980,-0.385742,13.854980,52.673340,16.174316
1563,-0.434082,-0.859375,-0.354492,15.136719,59.509277,16.357422
1564,-0.418945,-0.867188,-0.303711,16.967773,71.594238,17.761230
1565,-0.415527,-0.863281,-0.292480,16.479492,77.453613,18.676758
1566,-0.410645,-0.857422,-0.266602,14.953613,81.787109,19.775391
1567,-0.413086,-0.881836,-0.208496,12.023926,82.336426,20.568848
1568,-0.390625,-0.867188,-0.172363,-7.324219,66.345215,21.789551
1569,-0.385742,-0.887207,-0.244141,-12.756348,62.255859,24.475098
1570,-0.396484,-0.888672,-0.275879,-8.361816,49.865723,31.005859
1571,-0.413574,-0.886230,-0.190918,-4.394531,39.184570,33.081055
1572,-0.415527,-0.880859,-0.199219,-7.690430,27.832031,34.729004
1573,-0.425293,-0.875977,-0.215332,-12.756348,19.348145,35.278320
1574,-0.439453,-0.889160,-0.204590,-22.888184,8.300781,34.606934
1575,-0.457520,-0.913086,-0.227051,-40.222168,4.028320,32.592773
1576,-0.481445,-0.966797,-0.374512,-46.936035,-0.976562,30.273438
1577,-0.485352,-0.955566,-0.409180,-45.288086,-0.732422,30.273438
1578,-0.486328,-0.981445,-0.447266,-39.978027,-0.122070,29.602051
1579,-0.469727,-0.968750,-0.485352,-34.362793,3.479004,28.991699
1580,-0.390625,-0.924316,-0.510254,-16.113281,15.502930,30.212402
1581,-0.333008,-0.870605,-0.529297,-10.620117,22.460938,32.348633
1582,-0.305664,-0.844727,-0.523926,-8.911133,32.165527,35.949707
1583,-0.339355,-0.837891,-0.536621,-16.357422,56.823730,40.161133
1584,-0.326172,-0.798828,-0.516602,-20.629883,69.702148,43.273926
1585,-0.344238,-0.779297,-0.505371,-25.207520,82.214355,51.269531
1586,-0.468750,-0.790527,-0.481934,-47.485352,106.811523,65.673828
1587,-0.672852,-0.950195,-0.574219,-52.368164,112.426758,65.734863
1588,-0.638672,-0.908203,-0.530273,-41.442871,108.947754,62.622070
1589,-0.692383,-0.854492,-0.580566,2.075195,104.736328,62.805176
1590,-0.773438,-0.859863,-0.520020,31.250000,107.238770,64.331055
1591,-0.846191,-0.795410,-0.374023,52.673340,107.299805,64.025879
1592,-0.900391,-0.710938,-0.105957,73.303223,93.078613,53.527832
1593,-0.852051,-0.619629,-0.018066,74.829102,80.383301,49.255371
1594,-0.823730,-0.594238,0.014160,73.425293,68.481445,47.668457
1595,-0.788086,-0.562988,0.074707,66.589355,60.180664,47.546387
1596,-0.693359,-0.483398,0.143066,36.560059,44.555664,48.522949
1597,-0.656738,-0.438477,0.156250,14.587402,35.095215,48.339844
1598,-0.643066,-0.438965,0.052246,0.732422,26.794434,47.851562
1599,-0.678711,-0.543457,-0.019043,13.854980,8.239746,46.630859
1600,-0.714844,-0.613281,-0.010742,22.033691,-0.427246,47.180176
1601,-0.740723,-0.760742,-0.034180,23.559570,-12.207031,45.959473
1602,-0.717773,-0.783203,-0.050781,20.141602,-13.671875,43.273926
1603,-0.683105,-0.781250,-0.070801,15.380859,-14.648438,40.710449
1604,-0.622559,-0.726074,-0.053223,-19.531250,-37.780762,34.667969
1605,-0.624512,-0.705078,-0.103516,-33.081055,-64.819336,32.043457
1606,-0.643555,-0.835449,-1.026855,-34.606934,-120.605469,20.324707
1607,-0.589355,-0.760254,-1.052246,4.028320,-115.173340,18.188477
1608,-0.624023,-0.802734,-0.911133,19.287109,-94.238281,14.404297
1609,-0.555664,-0.716309,-0.782715,43.518066,-36.621094,7.934570
1610,-0.539062,-0.667969,-0.590820,68.420410,-17.456055,7.019043
1611,-0.547363,-0.650391,-0.401367,79.223633,-4.882812,3.479004
1612,-0.510254,-0.589355,-0.175293,64.392090,7.202148,2.197266
1613,-0.490723,-0.558105,-0.119629,45.959473,8.239746,3.662109
1614,-0.504395,-0.631348,-0.306641,29.602051,11.901855,5.249023
1615,-0.529785,-0.667969,-0.335938,32.226562,25.146484,6.469727
1616,-0.547852,-0.663574,-0.338867,32.409668,26.000977,5.737305
1617,-0.556152,-0.666016,-0.346191,32.287598,27.465820,4.943848
1618,-0.603516,-0.664551,-0.331055,33.142090,32.165527,5.187988
1619,-0.639160,-0.677734,-0.320312,34.606934,33.752441,5.187988
1620,-0.672852,-0.701172,-0.306641,35.522461,36.621094,3.967285
1621,-0.713867,-0.732422,-0.255859,16.052246,36.621094,-0.305176
1622,-0.716309,-0.731934,-0.250488,8.361816,39.367676,-4.577637
1623,-0.702637,-0.710938,-0.322266,4.333496,41.625977,-7.812500
1624,-0.678711,-0.680176,-0.450684,7.751465,43.212891,-12.023926
1625,-0.662598,-0.637207,-0.530273,14.160156,46.508789,-11.596680
1626,-0.689453,-0.648438,-0.581543,37.170410,47.973633,-14.648438
1627,-0.695312,-0.635254,-0.516113,47.485352,48.645020,-16.357422
1628,-0.698242,-0.640625,-0.504395,47.668457,51.330566,-16.357422
1629,-0.680664,-0.631348,-0.469727,38.940430,59.936523,-15.930176
1630,-0.664062,-0.621582,-0.474609,34.484863,65.612793,-16.052246
1631,-0.631836,-0.609863,-0.453125,33.691406,75.866699,-16.052246
1632,-0.613281,-0.607422,-0.448242,31.250000,79.956055,-15.380859
1633,-0.610352,-0.604492,-0.423828,30.700684,83.068848,-13.610840
1634,-0.628906,-0.618164,-0.484375,34.301758,85.815430,-11.352539
1635,-0.709961,-0.626953,-0.318848,33.325195,87.280273,-7.751465
1636,-0.733887,-0.649414,-0.329590,34.912109,88.256836,-4.516602
1637,-0.747070,-0.687500,-0.303223,45.410156,83.557129,0.061035
1638,-0.742188,-0.734375,-0.309082,62.866211,75.256348,8.666992
1639,-0.732910,-0.776367,-0.283203,69.030762,70.678711,10.864258
1640,-0.734375,-0.786621,-0.266602,73.791504,64.453125,11.901855
1641,-0.713379,-0.742188,-0.279785,73.303223,56.762695,9.521484
1642,-0.697266,-0.735840,-0.303711,72.326660,53.649902,10.559082
1643,-0.679199,-0.713867,-0.337891,71.716309,51.330566,12.084961
1644,-0.653320,-0.689941,-0.374023,71.899414,51.940918,12.390137
1645,-0.621094,-0.674316,-0.358398,91.674805,61.523438,9.033203
1646,-0.586426,-0.667969,-0.370117,97.778320,71.289062,9.399414
1647,-0.562988,-0.742676,-0.310059,112.182617,112.243652,8.361816
1648,-0.580078,-0.782227,-0.180664,106.994629,131.042480,9.277344
1649,-0.563477,-0.733887,-0.062988,91.491699,140.991211,8.422852
1650,-0.574707,-0.764160,-0.008301,72.448730,146.972656,10.925293
1651,-0.582031,-0.835938,-0.052734,46.936035,157.775879,14.282227
1652,-0.558594,-0.864746,-0.062500,44.494629,157.653809,16.601562
1653,-0.541504,-0.875977,-0.074707,41.198730,158.569336,18.432617
1654,-0.529785,-0.889160,-0.083984,40.405273,160.400391,20.874023
1655,-0.505371,-0.887207,-0.043945,45.776367,160.339355,26.550293
1656,-0.483398,-0.878418,-0.020508,48.583984,155.212402,29.724121
1657,-0.431641,-0.855469,-0.017578,45.654297,141.601562,32.897949
1658,-0.410156,-0.863770,-0.032715,41.931152,135.498047,30.639648
1659,-0.408203,-0.883301,-0.038574,40.771484,130.371094,31.188965
1660,-0.416504,-0.927734,-0.074219,47.058105,119.567871,30.334473
1661,-0.419922,-0.962891,-0.023438,47.729492,115.295410,31.555176
1662,-0.411621,-0.948242,-0.018066,37.170410,108.520508,32.043457
1663,-0.407715,-0.959961,-0.099121,17.822266,94.421387,31.005859
1664,-0.402832,-0.961426,-0.142090,13.244629,87.158203,29.479980
1665,-0.396484,-0.973145,-0.084961,10.131836,76.660156,26.489258
1666,-0.363770,-0.974609,-0.128418,0.549316,62.133789,24.108887
1667,-0.329590,-0.951660,-0.169922,4.211426,56.518555,25.939941
1668,-0.313965,-0.982422,-0.177734,10.803223,53.649902,27.282715
1669,-0.269043,-0.941895,-0.173828,18.493652,50.903320,32.165527
1670,-0.250000,-0.906250,-0.258301,19.165039,52.917480,36.621094
1671,-0.285645,-0.853027,-0.368164,38.085938,64.086914,45.593262
1672,-0.311523,-0.842773,-0.419922,59.387207,70.617676,50.231934
1673,-0.321777,-0.810547,-0.420410,77.026367,81.481934,50.659180
1674,-0.329102,-0.826172,-0.432129,83.923340,94.238281,49.682617
1675,-0.285156,-0.848633,-0.425781,93.994141,106.750488,46.447754
1676,-0.248047,-0.880371,-0.463379,97.656250,106.445312,45.349121
1677,-0.241699,-0.924805,-0.424805,99.792480,102.416992,42.785645
1678,-0.262207,-0.968750,-0.291992,67.993164,70.800781,23.681641
1679,-0.307617,-0.906738,-0.271484,34.240723,58.471680,27.099609
1680,-0.370117,-0.825684,-0.245117,21.057129,49.438477,30.761719
1681,-0.433105,-0.788086,-0.279297,14.404297,43.334961,35.461426
1682,-0.497559,-0.801270,-0.349609,13.122559,48.767090,44.982910
1683,-0.500977,-0.821289,-0.373535,12.634277,53.283691,52.062988
1684,-0.489746,-0.842773,-0.403809,12.207031,54.199219,58.410645
1685,-0.416992,-0.913086,-0.422852,13.183594,45.654297,59.143066
1686,-0.375977,-0.962891,-0.407715,9.582520,36.437988,54.565430
1687,-0.346191,-0.990723,-0.421387,5.554199,26.916504,51.696777
1688,-0.328613,-1.010254,-0.473145,6.958008,19.470215,53.100586
1689,-0.322266,-1.005859,-0.480469,8.605957,22.094727,54.260254
1690,-0.296875,-0.997070,-0.500977,9.704590,28.564453,54.443359
1691,-0.206055,-0.970215,-0.500488,6.652832,49.804688,49.133301
1692,-0.179688,-0.941406,-0.450684,2.502441,54.260254,47.058105
1693,-0.175293,-0.924316,-0.444336,-1.220703,53.161621,46.264648
1694,-0.243164,-0.880859,-0.473145,-0.244141,53.710938,48.095703
1695,-0.295898,-0.854980,-0.479492,-0.793457,54.931641,49.926758
1696,-0.339355,-0.848145,-0.518555,-4.211426,58.715820,52.856445
1697,-0.377441,-0.835938,-0.560059,-7.690430,65.307617,53.649902
1698,-0.479492,-0.845215,-0.557617,-17.456055,76.049805,51.330566
1699,-0.527832,-0.871094,-0.536133,-24.902344,73.730469,50.415039
1700,-0.568359,-0.909180,-0.530273,-33.325195,67.993164,50.598145
1701,-0.637695,-1.022949,-0.604980,-40.649414,59.631348,57.250977
1702,-0.665039,-1.071289,-0.656738,-30.944824,58.776855,61.218262
1703,-0.701172,-1.086426,-0.659180,3.784180,71.838379,71.655273
1704,-0.761230,-0.964844,-0.534180,16.723633,88.989258,76.721191
1705,-0.801270,-0.848145,-0.417480,26.672363,106.872559,78.125000
1706,-0.801758,-0.675293,-0.335938,38.330078,119.934082,75.195312
1707,-0.757812,-0.437012,-0.165527,52.673340,119.384766,62.316895
1708,-0.724121,-0.350098,-0.112305,53.161621,109.069824,54.687500
1709,-0.706543,-0.292969,-0.027344,45.959473,92.102051,48.217773
1710,-0.685059,-0.233887,-0.067383,29.663086,46.691895,39.550781
1711,-0.705078,-0.253418,-0.072754,27.099609,22.338867,37.414551
1712,-0.722168,-0.299316,-0.101074,29.418945,1.159668,35.461426
1713,-0.733887,-0.445801,-0.096680,43.151855,-25.329590,33.264160
1714,-0.745605,-0.524414,-0.053711,44.799805,-31.372070,33.508301
1715,-0.760742,-0.636230,-0.050293,43.762207,-37.353516,33.874512
1716,-0.730957,-0.729492,-0.213379,46.325684,-44.494629,38.146973
1717,-0.742676,-0.928711,-0.665039,48.278809,-63.659668,47.058105
1718,-0.764648,-0.827148,-0.871582,48.767090,-22.399902,40.588379
1719,-0.597656,-0.725098,-0.933594,13.244629,14.221191,28.015137
1720,-0.462891,-0.630859,-0.639160,-2.563477,65.734863,23.315430
1721,-0.458496,-0.600586,-0.519043,0.854492,76.293945,24.230957
1722,-0.394531,-0.552734,-0.467285,7.324219,84.655762,22.888184
1723,-0.425293,-0.578125,-0.433594,20.690918,91.430664,21.118164
1724,-0.528320,-0.569824,-0.292969,47.180176,94.482422,20.751953
1725,-0.524414,-0.548340,-0.204102,52.734375,85.876465,20.874023
1726,-0.437500,-0.491699,-0.156738,50.415039,61.096191,25.268555
1727,-0.411621,-0.451172,-0.200195,47.851562,51.818848,28.930664
1728,-0.434570,-0.450684,-0.254395,49.011230,46.508789,31.127930
1729,-0.492676,-0.479492,-0.336914,52.673340,41.442871,24.353027
1730,-0.487793,-0.491699,-0.349609,54.748535,39.245605,19.287109
1731,-0.480957,-0.507812,-0.354492,59.082031,37.109375,14.709473
1732,-0.482910,-0.537109,-0.313477,62.744141,31.616211,12.207031
1733,-0.490723,-0.584473,-0.332520,67.077637,17.517090,5.371094
1734,-0.512695,-0.624023,-0.348633,66.772461,14.648438,2.014160
1735,-0.508301,-0.645508,-0.402832,59.814453,13.427734,-4.150391
1736,-0.471191,-0.670410,-0.460938,57.373047,13.244629,-6.774902
1737,-0.440918,-0.704102,-0.538574,59.020996,12.390137,-8.178711
1738,-0.430176,-0.728516,-0.622070,63.232422,10.070801,-8.117676
1739,-0.473145,-0.807617,-0.777832,68.969727,12.817383,-6.042480
1740,-0.534180,-0.862305,-0.738281,63.964844,14.282227,-3.356934
1741,-0.509277,-0.869141,-0.770508,56.518555,19.409180,-5.493164
1742,-0.418457,-0.842285,-0.654297,46.936035,36.071777,-11.291504
1743,-0.395020,-0.847168,-0.583496,39.062500,41.381836,-15.380859
1744,-0.386719,-0.870605,-0.590820,39.001465,43.395996,-23.132324
1745,-0.328613,-0.842285,-0.563965,47.180176,40.588379,-28.991699
1746,-0.390625,-0.810059,-0.422852,57.861328,14.709473,-23.315430
1747,-0.444336,-0.766113,-0.359375,50.964355,-3.967285,-16.418457
1748,-0.505371,-0.733887,-0.337402,42.846680,-21.911621,-7.629395
1749,-0.569336,-0.685547,-0.338379,36.987305,-35.278320,0.976562
1750,-0.574707,-0.692871,-0.341309,38.452148,-29.052734,-2.197266
1751,-0.555176,-0.707520,-0.341309,39.855957,-21.545410,-7.751465
1752,-0.490234,-0.857422,-0.366211,55.053711,-15.869141,-20.935059
1753,-0.520996,-0.971680,-0.400391,76.538086,-12.939453,-23.864746
1754,-0.730957,-1.005371,-0.286621,128.967285,9.094238,-19.531250
1755,-0.829590,-1.053223,-0.197754,129.089355,8.483887,-10.009766
1756,-0.919434,-1.039551,-0.171875,111.328125,2.502441,-4.760742
1757,-0.887207,-0.707031,-0.057129,61.096191,-4.272461,0.305176
1758,-0.840820,-0.514160,0.027344,32.226562,-9.033203,4.577637
1759,-0.804199,-0.475586,-0.044434,16.235352,-13.488770,2.441406
1760,-0.607422,-0.454102,0.059570,4.455566,-9.704590,-7.385254
1761,-0.543945,-0.494629,0.117188,-7.507324,-11.962891,-12.878418
1762,-0.545410,-0.587891,0.084961,-18.981934,-12.756348,-18.981934
1763,-0.617188,-0.708496,0.027832,-29.235840,-10.131836,-27.221680
1764,-0.291016,-0.708984,0.061035,-25.268555,3.051758,-68.176270
1765,-0.642578,-1.020508,-0.097656,-20.324707,15.625000,-69.091797
1766,-0.472168,-0.984863,-0.087891,10.070801,10.803223,-47.668457
1767,-0.425781,-0.984375,-0.063965,23.559570,7.568359,-32.165527
1768,-0.411621,-0.967773,-0.025879,31.921387,9.582520,-21.911621
1769,-0.409180,-0.953613,0.016113,25.085449,19.042969,-15.869141
1770,-0.404785,-0.940918,0.039551,17.761230,27.282715,-15.441895
1771,-0.445312,-1.083984,-0.005371,15.258789,36.804199,-20.141602
1772,-0.413086,-1.056641,0.045410,14.587402,44.677734,-26.611328
1773,-0.398926,-1.028809,0.047363,2.807617,36.132812,-25.573730
1774,-0.424805,-1.016113,0.107422,-11.474609,18.371582,-28.381348
1775,-0.365234,-0.914551,-0.015137,-27.832031,-2.746582,-22.766113
1776,-0.375977,-0.890625,-0.292969,-39.916992,-51.330566,-7.995605
1777,-0.345703,-0.811523,-0.438965,-29.357910,-64.086914,-4.821777
1778,-0.374512,-0.849121,-0.484863,-12.512207,-66.772461,-5.615234
1779,-0.378418,-0.855957,-0.319336,18.981934,-47.973633,-6.164551
1780,-0.373535,-0.873047,-0.289062,22.521973,-33.447266,-6.530762
1781,-0.352051,-0.869629,-0.236328,21.057129,-16.662598,-8.544922
1782,-0.328125,-0.842773,-0.152832,12.023926,13.916016,-10.314941
1783,-0.354980,-0.891113,-0.144531,4.272461,21.850586,-8.728027
1784,-0.353516,-0.849609,-0.071289,-4.394531,24.841309,-8.605957
1785,-0.382812,-0.838867,-0.145020,-20.385742,20.568848,-2.197266
1786,-0.402344,-0.864258,-0.231934,-18.981934,18.676758,-0.244141
1787,-0.416504,-0.860840,-0.256836,-12.451172,13.732910,2.563477
1788,-0.437500,-0.840332,-0.358398,-2.868652,4.333496,5.554199
1789,-0.399902,-0.832520,-0.407715,-4.333496,8.605957,6.408691
1790,-0.360840,-0.862305,-0.330566,-0.244141,28.869629,11.169434
1791,-0.366699,-0.878418,-0.261230,-1.464844,31.738281,13.916016
1792,-0.367676,-0.896484,-0.221680,-9.521484,33.874512,16.174316
1793,-0.362793,-0.905273,-0.213379,-15.686035,33.142090,18.493652
1794,-0.376953,-0.940918,-0.148926,-33.508301,25.695801,18.188477
1795,-0.368652,-0.897461,-0.172363,-39.184570,19.165039,21.850586
1796,-0.359863,-0.915527,-0.263672,-42.419434,-0.732422,22.888184
1797,-0.369629,-0.939941,-0.249023,-36.315918,-3.967285,22.949219
1798,-0.370605,-0.943848,-0.258789,-33.874512,-8.972168,22.705078
1799,-0.383789,-0.953125,-0.253418,-33.935547,-13.122559,21.850586
1800,-0.402344,-0.964355,-0.241211,-48.889160,-25.573730,17.883301
1801,-0.393066,-0.936523,-0.299805,-56.091309,-25.695801,15.014648
1802,-0.380371,-0.980469,-0.369141,-51.635742,-27.099609,15.747070
1803,-0.319336,-0.982910,-0.477539,-41.259766,-25.146484,14.831543
1804,-0.292969,-1.003906,-0.535156,-36.987305,-21.301270,14.892578
1805,-0.265625,-0.983887,-0.558105,-33.203125,-13.854980,15.380859
1806,-0.247070,-0.962402,-0.657715,-33.813477,10.498047,18.859863
1807,-0.277832,-0.968750,-0.687012,-35.583496,24.169922,19.165039
1808,-0.286621,-0.925293,-0.651367,-39.123535,36.010742,19.897461
1809,-0.383789,-0.899414,-0.578613,-67.321777,53.283691,33.386230
1810,-0.451660,-0.948242,-0.588379,-86.853027,60.424805,38.696289
1811,-0.505371,-1.003418,-0.596191,-98.754883,62.377930,41.687012
1812,-0.690430,-1.208496,-0.639648,-88.439941,52.978516,30.761719
1813,-0.588379,-1.125000,-0.622559,-76.110840,41.870117,29.968262
1814,-0.579590,-1.057129,-0.635254,-58.837891,40.893555,33.325195
1815,-0.586426,-0.900391,-0.502441,-39.916992,45.532227,34.240723
1816,-0.575195,-0.619629,-0.334473,-29.907227,51.086426,28.320312
1817,-0.617188,-0.556152,-0.241211,-15.197754,57.983398,23.437500
1818,-0.603516,-0.427734,-0.179199,-2.807617,59.753418,18.371582
1819,-0.645020,-0.421387,-0.081055,20.019531,55.908203,7.202148
1820,-0.645508,-0.432129,0.018555,36.132812,45.898438,3.601074
1821,-0.653320,-0.449219,0.092773,45.959473,31.677246,1.464844
1822,-0.703125,-0.522949,0.159668,38.635254,4.150391,7.873535
1823,-0.752930,-0.592285,0.188477,26.611328,-3.295898,7.873535
1824,-0.770020,-0.653809,0.170410,14.709473,-15.075684,8.605957
1825,-0.782227,-0.776367,-0.011719,12.390137,-29.479980,12.939453
1826,-0.718750,-0.850098,-0.079590,1.953125,-41.076660,14.282227
1827,-0.662109,-0.890137,-0.205078,-20.324707,-96.496582,20.812988
1828,-0.477539,-0.788574,-1.246582,-38.452148,-126.953125,26.245117
1829,-0.459473,-0.736816,-1.289551,-12.451172,-87.768555,25.695801
1830,-0.444336,-0.668945,-1.023926,11.657715,-52.795410,25.207520
1831,-0.314453,-0.646484,-0.713867,45.654297,5.615234,10.864258
1832,-0.335449,-0.655762,-0.539062,69.641113,32.470703,5.249023
1833,-0.296875,-0.572754,-0.290527,88.012695,48.828125,-2.990723
1834,-0.269531,-0.462891,-0.057129,90.148926,52.185059,-8.483887
1835,-0.336914,-0.398438,0.102539,62.255859,36.865234,-7.812500
1836,-0.355957,-0.406250,0.102539,41.320801,31.005859,-8.911133
