order,ax,ay,az,gx,gy,gz
0,0.000488,-0.421875,0.916504,-0.549316,27.709961,-16.174316
1,-0.035645,-0.442871,1.007812,-18.615723,48.217773,-15.930176
2,-0.132812,-0.472168,1.034668,-39.245605,59.143066,-24.841309
3,-0.143555,-0.434082,0.994629,-34.606934,56.213379,-29.418945
4,-0.118164,-0.366699,0.948730,-20.568848,49.743652,-29.907227
5,-0.097656,-0.264648,0.823730,19.775391,32.043457,-20.935059
6,-0.071777,-0.255371,0.783691,36.560059,22.155762,-13.000488
7,-0.059082,-0.295898,0.712891,49.743652,18.920898,-5.798340
8,-0.062500,-0.417969,0.865234,50.109863,18.798828,-4.333496
9,-0.065430,-0.460938,0.967285,23.376465,9.826660,-10.131836
10,-0.060547,-0.471680,0.892578,-8.483887,1.159668,-18.188477
11,-0.053223,-0.449219,0.757812,-27.465820,-5.554199,-25.451660
12,-0.022461,-0.412598,0.611816,-24.353027,-5.615234,-34.667969
13,-0.024902,-0.346680,0.567383,-11.230469,-9.460449,-35.095215
14,-0.020508,-0.307129,0.516113,6.042480,-14.770508,-30.883789
15,0.011719,-0.341797,0.421387,27.648926,-17.150879,-28.015137
16,0.070312,-0.303711,0.498535,58.410645,-8.728027,-24.047852
17,0.090332,-0.293945,0.627441,47.973633,-4.577637,-20.263672
18,0.099609,-0.333496,0.761230,28.198242,-7.568359,-15.441895
19,0.083984,-0.441895,0.769531,-13.854980,-24.597168,-8.972168
20,0.094727,-0.485352,0.694336,-25.207520,-25.817871,-9.033203
21,0.105957,-0.524902,0.659668,-29.846191,-21.484375,-11.352539
22,0.133789,-0.554688,0.574219,-14.953613,-12.756348,-19.165039
23,0.149414,-0.551270,0.510742,17.517090,-1.220703,-22.521973
24,0.157227,-0.532715,0.613281,54.260254,11.291504,-23.254395
25,0.151855,-0.484863,0.827148,71.350098,16.418457,-21.362305
26,0.119629,-0.462891,0.948730,64.636230,17.639160,-18.432617
27,0.085449,-0.435059,1.022461,28.930664,22.521973,-10.314941
28,0.083496,-0.441895,1.077637,22.583008,23.864746,-6.774902
29,0.067871,-0.428223,1.180664,15.319824,19.775391,-3.356934
30,-0.051758,-0.366699,1.447754,-24.536133,1.037598,-0.488281
31,-0.043457,-0.466309,1.487305,-60.119629,-15.319824,-1.037598
32,-0.017578,-0.664062,1.218262,-62.011719,-22.766113,-3.234863
33,0.033691,-0.862305,1.125488,46.691895,-46.569824,-17.150879
34,0.123047,-0.759766,1.241699,103.149414,-74.951172,-22.277832
35,0.186035,-0.586914,1.307617,130.371094,-102.600098,-20.812988
36,0.204590,-0.483887,1.265625,127.746582,-111.267090,-22.216797
37,0.301270,-0.303223,1.104004,85.083008,-78.735352,-32.348633
38,0.217773,-0.160156,1.280273,44.555664,-48.645020,-41.320801
39,0.281738,-0.014648,1.350098,-11.657715,-28.076172,-47.912598
40,0.261719,0.207520,1.273438,-100.402832,-12.878418,-31.616211
41,-0.011230,0.003906,1.082031,-126.708984,13.366699,-62.133789
42,0.089844,-0.009766,1.140625,-116.516113,10.681152,-75.744629
43,0.161621,-0.088867,1.087402,-107.543945,-6.958008,-72.692871
44,0.298340,-0.231445,0.791016,-126.831055,-26.977539,-70.068359
45,0.386719,-0.261230,0.517090,-137.817383,-3.356934,-75.256348
46,0.417480,-0.270508,0.405273,-123.229980,47.302246,-82.458496
47,0.395020,-0.123535,0.798340,-87.768555,141.418457,-65.612793
48,0.295410,-0.112305,1.090332,-100.036621,153.259277,-43.945312
49,0.176758,-0.170898,1.165039,-128.784180,145.019531,-28.198242
50,0.089355,-0.232422,1.101074,-154.907227,136.840820,-18.127441
51,0.283691,-0.244629,0.652832,-85.876465,95.397949,41.137695
52,0.211426,-0.371582,0.481934,29.968262,66.101074,78.186035
53,0.156738,-0.413574,0.613770,133.972168,27.160645,108.337402
54,-0.097656,-0.439453,0.828125,238.647461,-36.315918,141.845703
55,-0.227539,-0.431641,0.890137,255.554199,-56.457520,143.920898
56,-0.333984,-0.427734,1.036621,242.492676,-71.350098,133.300781
57,-0.200195,-0.250977,0.893066,144.470215,-92.285156,16.906738
58,0.065430,-0.163086,0.840332,90.393066,-92.346191,-2.441406
59,0.186523,-0.285645,0.802734,16.967773,-72.265625,-7.263184
60,0.123047,-0.460449,0.827637,-54.626465,-29.907227,-11.474609
61,-0.028320,-0.244141,1.048828,-101.623535,0.793457,-58.349609
62,-0.035645,-0.247070,1.115234,-95.825195,-20.019531,-58.166504
63,-0.127930,-0.435059,1.090820,-106.140137,-34.606934,-55.297852
64,-0.063477,-0.655762,0.805664,-115.417480,-45.654297,-77.758789
65,0.048828,-0.663086,0.870605,-128.417969,-35.156250,-74.523926
66,0.095215,-0.736328,0.897949,-163.696289,-13.793945,-66.345215
67,0.005859,-0.951172,0.709473,-187.866211,15.075684,-75.073242
68,0.029297,-1.148926,0.648926,-176.086426,77.514648,-152.893066
69,0.242188,-0.870605,0.714844,-153.503418,92.895508,-186.889648
70,0.450195,-0.625000,0.814453,-137.512207,107.604980,-191.162109
71,0.531250,-0.457520,0.713379,-88.562012,120.056152,-128.784180
72,0.309082,-0.474121,0.570801,-19.958496,117.980957,-85.876465
73,0.059082,-0.634277,0.598145,41.259766,112.304688,-58.654785
74,-0.242676,-0.921875,0.809082,112.792969,101.623535,-57.250977
75,-0.320312,-0.981445,0.950195,135.559082,99.548340,-81.970215
76,-0.281250,-0.873047,1.165527,142.517090,100.952148,-107.604980
77,-0.262695,-0.720215,1.407227,125.183105,100.830078,-128.662109
78,-0.190918,-0.332031,1.284668,52.795410,88.012695,-153.991699
79,-0.048340,-0.127441,1.176758,28.991699,74.707031,-139.282227
80,0.048828,-0.040527,1.122070,10.192871,56.274414,-111.572266
81,-0.001953,-0.029785,1.036621,6.164551,-3.540039,-57.128906
82,-0.163574,-0.210938,1.079590,-6.896973,-34.790039,-49.255371
83,-0.137207,-0.286133,1.057129,-45.349121,-53.161621,-53.710938
84,0.182617,-0.307129,0.795410,-120.483398,-55.603027,-45.471191
85,0.316895,-0.474121,0.603027,-118.713379,-57.006836,-34.057617
86,0.426758,-0.770996,0.472656,-99.853516,-27.770996,-32.165527
87,0.190918,-0.988770,0.502930,-60.363770,8.117676,-54.931641
88,-0.004883,-0.747559,0.488770,23.132324,7.324219,-114.929199
89,0.203125,-0.353516,0.399414,37.597656,21.911621,-119.384766
90,0.290527,-0.080078,0.442871,38.574219,37.414551,-106.567383
91,0.123535,-0.180176,0.978027,24.353027,23.864746,-80.871582
92,0.142578,-0.229004,1.151367,-18.249512,-10.437012,-78.002930
93,0.182617,-0.221680,0.863281,-54.321289,-43.579102,-74.401855
94,0.180664,-0.181152,0.370117,-51.330566,-55.053711,-66.650391
95,0.256348,-0.232910,0.144531,6.347656,-11.474609,-39.306641
96,0.397461,-0.197754,0.259277,13.427734,11.962891,-22.705078
97,0.605957,-0.334961,0.242676,15.136719,40.161133,-9.338379
98,0.724609,-0.295410,0.086426,17.028809,113.403320,14.282227
99,0.609375,-0.289062,-0.046875,44.921875,151.428223,47.851562
100,0.447266,-0.386719,-0.031250,109.985352,182.861328,68.664551
101,-0.111328,-0.929199,0.724121,384.216309,82.458496,61.645508
102,-0.314941,-1.044922,0.801758,436.950684,44.738770,8.483887
103,-0.122070,-0.241699,2.266113,462.646484,-10.559082,-43.884277
104,0.088379,-0.016113,2.091309,378.906250,-84.777832,-46.813965
105,0.136719,0.321777,2.223145,11.718750,-96.313477,-16.174316
106,-0.195801,-0.172363,1.794922,-112.731934,-137.329102,-14.648438
107,-0.289551,-0.503906,1.137207,-162.658691,-142.883301,-40.649414
108,0.016602,-0.541504,0.975098,-108.154297,-83.374023,-122.802734
109,0.325195,-0.288086,1.164062,-100.646973,-97.229004,-150.268555
110,1.004395,0.471680,0.791992,-98.999023,-110.168457,-130.249023
111,0.562988,-0.312500,0.532715,-57.373047,-39.245605,91.125488
112,0.126953,-0.815918,0.651855,-17.700195,-6.591797,58.593750
113,0.338867,-0.682129,0.708984,-33.996582,32.287598,14.709473
114,0.638672,-0.281738,0.611816,-124.694824,108.215332,6.103516
115,0.157715,-0.232910,0.562500,-232.055664,285.278320,-15.441895
116,-0.223145,-0.188965,1.237305,-193.481445,329.223633,-1.342773
117,-0.574707,-0.663574,2.604492,-133.300781,148.803711,-41.198730
118,-0.747559,-0.627930,2.411621,-136.169434,-7.751465,-68.542480
119,-0.123535,-0.094238,1.142578,-92.651367,-173.828125,-31.921387
120,0.166016,-0.162598,0.400879,-47.729492,-147.827148,17.150879
121,0.271484,-0.113281,0.181641,-24.719238,-61.584473,61.706543
122,0.187012,-0.129883,0.572754,-33.508301,86.853027,185.180664
123,-0.001953,-0.200195,0.549805,-31.738281,121.032715,244.812012
124,-0.310547,-0.309570,0.681641,-53.955078,127.136230,279.907227
125,-0.453125,-0.431641,0.938965,-110.107422,115.356445,285.095215
126,-0.142578,-0.153809,1.126953,-191.833496,29.052734,207.885742
127,0.068359,-0.171387,1.026855,-190.124512,-36.743164,166.748047
128,0.277832,-0.252441,0.791504,-192.138672,-85.693359,119.995117
129,0.287109,-0.347656,0.616699,-190.307617,-108.825684,97.412109
130,-0.338867,-0.589844,0.378418,-213.562012,-133.605957,119.201660
131,-0.594238,-0.582031,0.612793,-237.182617,-167.053223,131.408691
132,-0.767578,-0.528320,0.778809,-246.459961,-208.984375,122.375488
133,-0.685059,-0.504395,0.741699,-232.666016,-210.327148,99.792480
134,-0.316406,-0.700195,0.134277,-204.772949,-158.142090,95.703125
135,-0.394043,-0.866211,0.012207,-168.212891,-110.534668,91.186523
136,-0.519531,-0.932617,0.194824,-129.394531,-92.407227,98.022461
137,-0.423340,-0.790039,0.542969,-33.752441,-128.662109,147.766113
138,-0.414062,-0.781250,0.550781,18.005371,-157.592773,177.612305
139,-0.819336,-0.753906,1.164062,64.941406,-200.683594,202.087402
140,-0.617676,-0.456055,-0.278320,75.317383,-188.171387,257.568359
141,-0.569336,-0.393555,0.274902,59.692383,-111.877441,267.456055
142,-0.560547,-0.155762,0.617676,33.142090,-81.542969,268.981934
143,-1.021973,0.137207,0.525391,-70.190430,-45.593262,288.391113
144,-1.301270,0.374512,0.490723,-142.700195,-40.771484,317.382812
145,-1.540527,0.755371,0.621582,-194.519043,-52.185059,382.690430
146,-1.641113,0.535156,0.778320,-247.680664,-82.092285,467.468262
147,-1.517090,-0.345703,0.457031,-204.101562,-133.605957,517.883301
148,-1.518066,-0.837891,0.087402,-176.574707,-98.327637,497.192383
149,-1.325195,-1.182129,-0.013672,-158.996582,-40.954590,465.332031
150,-1.372559,-2.386230,0.405762,-128.784180,12.634277,403.747559
151,-1.287109,-3.067871,1.055176,-66.528320,-26.977539,337.829590
152,-1.026367,-3.303711,1.254883,2.319336,-59.204102,271.240234
153,-0.950195,-3.005859,1.229980,134.826660,-97.412109,136.169434
154,-0.780273,-2.659668,1.050781,159.057617,-136.535645,64.575195
155,-0.519043,-2.500977,0.679688,157.226562,-154.846191,-7.507324
156,-0.267578,-2.434570,0.168945,139.221191,-132.995605,-88.867188
157,-0.138672,-1.880859,-0.520020,130.615234,-24.169922,-228.637695
158,-0.215332,-1.599121,-0.672363,137.573242,33.020020,-275.756836
159,-0.247070,-1.108887,-0.638184,142.639160,76.049805,-302.734375
160,-0.491699,-0.083008,-0.641113,105.895996,141.418457,-275.329590
161,-0.545410,0.673828,-0.660156,59.265137,185.058594,-198.547363
162,-0.734375,0.585938,0.131836,41.259766,181.030273,-116.210938
163,-0.999512,-0.011719,0.639160,-81.054688,70.556641,-37.048340
164,-0.937500,-0.341309,0.406738,-142.333984,46.752930,-65.002441
165,-0.671387,-0.262695,0.192871,-164.245605,48.339844,-89.111328
166,-0.576172,-0.632324,-0.138672,-136.962891,80.139160,-111.145020
167,-0.354004,-0.601074,-0.216309,-50.476074,156.005859,-147.644043
168,-0.226074,-0.700684,-0.142578,-25.634766,179.382324,-149.230957
169,-0.387207,-0.634766,0.145508,-5.065918,148.376465,-153.259277
170,-0.531250,-0.502930,-0.735840,49.682617,153.137207,-141.418457
171,-0.586914,-0.303223,0.099121,124.206543,133.056641,-66.650391
172,-0.857422,-0.354004,0.138184,114.074707,125.488281,-56.396484
173,-0.897461,-0.533691,0.040527,89.416504,127.685547,-87.524414
174,-0.498047,-0.453125,0.155762,-21.301270,142.395020,-131.774902
175,-0.302734,-0.617676,0.023438,-80.688477,157.165527,-127.441406
176,-0.106934,-0.777832,-0.144531,-111.083984,172.851562,-117.309570
177,0.164062,-1.577148,-0.552734,-71.838379,255.676270,-137.268066
178,0.025391,-1.889160,-0.109375,-15.808105,313.049316,-182.495117
179,-0.156250,-1.857910,0.876953,103.820801,206.909180,-187.377930
180,-1.150391,-0.598633,0.261719,81.848145,7.324219,-43.701172
181,-1.189941,-0.812012,0.268066,81.115723,-34.851074,1.892090
182,-1.011230,-1.296387,0.207520,36.315918,15.197754,-18.859863
183,-0.851562,-1.676270,0.254883,-4.455566,93.139648,-86.486816
184,-0.145020,-1.882324,0.007324,3.967285,174.560547,-226.257324
185,0.141113,-1.706543,0.072266,60.546875,207.214355,-257.934570
186,-0.262695,-1.082031,0.857422,43.273926,161.315918,-227.294922
187,-0.577637,-1.258789,-0.070801,38.635254,16.113281,-125.244141
188,-0.503418,-1.437500,-0.853516,55.175781,148.193359,-140.563965
189,-0.850098,-0.765625,0.629883,120.544434,273.315430,-178.283691
190,-0.839844,0.003906,1.552246,91.430664,-148.498535,-32.897949
191,-0.674805,0.190918,1.355469,117.187500,-249.023438,45.654297
192,-0.451172,0.225098,1.003418,146.301270,-280.029297,97.106934
193,-0.246582,0.105469,0.284668,144.287109,-290.283203,144.409180
194,-0.676758,-0.620605,-0.752930,-95.153809,56.213379,96.069336
195,-0.672852,-0.320801,-0.142578,-145.874023,151.733398,84.838867
196,-0.726562,-0.317383,0.484375,-171.020508,131.591797,111.572266
197,-0.697754,-0.343262,0.840820,-193.054199,51.635742,128.784180
198,-0.477051,-0.487793,0.382324,-243.286133,-34.606934,137.512207
199,-0.526855,-0.771484,-0.020996,-252.868652,-28.869629,120.544434
200,-0.473633,-0.726562,-0.156250,-232.116699,-20.874023,100.585938
201,-0.524414,-0.535645,0.056641,-159.118652,-32.531738,133.666992
202,-0.620605,-0.615723,0.334473,-138.854980,-54.016113,162.109375
203,-0.790527,-0.762207,0.521973,-137.451172,-85.144043,178.222656
204,-0.697266,-1.159668,0.125977,-140.747070,-137.023926,91.491699
205,-0.437988,-1.104492,0.015137,-147.827148,-144.531250,27.770996
206,-0.394043,-1.169922,-0.276367,-160.705566,-132.629395,-34.362793
207,-0.386719,-0.990234,-0.462891,-210.510254,-38.818359,-164.367676
208,-0.334473,-0.683594,-0.224121,-240.417480,-1.403809,-158.996582
209,-0.336914,-0.528320,-0.045898,-252.746582,-5.859375,-111.145020
210,-0.512695,-0.617676,-0.122070,-235.046387,-95.214844,-24.597168
211,-0.502930,-0.578613,-0.141113,-239.562988,-133.972168,-19.897461
212,-0.476074,-0.620605,-0.287109,-250.549316,-149.902344,-26.000977
213,-0.493164,-0.868652,-0.632324,-276.733398,-116.699219,-67.016602
214,-0.664062,-0.964355,-0.679688,-266.845703,-76.477051,-75.744629
215,-0.833984,-1.058594,-0.912109,-231.445312,-50.781250,-75.988770
216,-0.748535,-0.658203,-0.842773,-133.789062,-34.362793,-62.011719
217,-0.774902,-0.648926,-0.825195,-96.069336,-43.151855,-45.410156
218,-0.803223,-0.646973,-1.119629,-54.260254,-51.757812,-28.991699
219,-0.911133,-1.125977,-1.684570,17.700195,-2.380371,0.976562
220,-0.706543,-1.132324,-1.659668,40.832520,41.137695,2.258301
221,-0.473633,-1.034668,-1.281250,45.654297,72.509766,4.028320
222,-0.361328,-0.998535,-0.993652,23.803711,80.749512,-0.610352
223,-0.427734,-0.759766,-0.721191,-63.293457,76.599121,-4.760742
224,-0.578613,-0.660156,-0.563477,-104.614258,50.659180,-3.784180
225,-0.803223,-0.775879,-0.485840,-145.874023,29.052734,-9.338379
226,-0.999512,-1.153320,-0.279297,-234.619141,-17.883301,1.586914
227,-1.207520,-1.557617,-0.541016,-224.365234,-25.451660,-4.760742
228,-1.160645,-1.621094,-0.640625,-176.330566,-22.521973,-24.047852
229,-0.396973,-0.952148,-0.645020,-134.399414,3.479004,-27.221680
230,-0.326172,-0.928223,-0.716797,-116.271973,19.470215,-10.559082
231,-0.326660,-0.886230,-0.604004,-96.435547,27.954102,4.089355
232,-0.408691,-0.686035,-0.308594,-101.562500,23.315430,25.207520
233,-0.438477,-0.541016,-0.305176,-101.440430,16.540527,31.127930
234,-0.501465,-0.511719,-0.343750,-90.698242,8.422852,35.156250
235,-0.596191,-0.641602,-0.415039,-58.654785,-2.441406,21.545410
236,-0.344727,-0.460449,-0.402344,15.258789,-21.118164,-4.455566
237,-0.270508,-0.364258,-0.483887,31.738281,-15.136719,5.249023
238,-0.270996,-0.333008,-0.595703,43.701172,-0.427246,17.578125
239,-0.272949,-0.299805,-0.659668,60.913086,10.009766,26.489258
240,-0.245117,-0.386230,-0.732422,97.778320,18.554688,38.391113
241,-0.248047,-0.491699,-0.664551,85.693359,23.376465,34.179688
242,-0.258789,-0.548340,-0.574707,71.960449,14.282227,24.169922
243,-0.013672,-0.242676,-0.365723,46.325684,-40.039062,23.803711
244,-0.172852,-0.467285,-0.517090,32.348633,-48.950195,26.062012
245,-0.187988,-0.464355,-0.568848,12.145996,-29.541016,8.728027
246,-0.021973,-0.266113,-0.589844,-39.184570,8.544922,-3.601074
247,0.044922,-0.173340,-0.411133,-52.612305,14.831543,-4.272461
248,-0.029297,-0.121094,-0.284180,-46.936035,3.234863,2.624512
249,-0.238770,-0.223633,-0.342285,-58.593750,-3.356934,13.732910
250,-0.319824,-0.305176,-0.414062,-52.673340,-4.272461,6.408691
251,-0.374023,-0.311523,-0.447754,-36.865234,-6.774902,-3.906250
252,-0.419434,-0.288574,-0.534180,-14.404297,-9.216309,-16.113281
253,-0.424805,-0.267090,-0.559082,65.673828,-17.883301,-21.423340
254,-0.435547,-0.339355,-0.544434,105.651855,-29.357910,-13.732910
255,-0.468262,-0.443359,-0.613770,126.831055,-48.889160,-7.751465
256,-0.350098,-0.936523,-1.359863,146.484375,-72.875977,10.681152
257,-0.309082,-1.374512,-1.324219,151.306152,-53.649902,19.409180
258,-0.165039,-1.526855,-1.314453,136.962891,-41.564941,11.596680
259,-0.777344,-1.140625,-1.395996,160.156250,-31.433105,23.620605
260,-1.210938,-0.793457,-0.684570,139.953613,-28.991699,-7.080078
261,-0.708984,-0.328125,-0.282715,-27.526855,-22.460938,-59.631348
262,-0.571777,-0.394043,-0.448242,-88.317871,2.319336,-40.161133
263,-0.639648,-0.640625,-0.471680,-98.388672,15.319824,-18.005371
264,-0.748535,-0.811035,-0.326660,-82.458496,-8.911133,8.605957
265,-0.888672,-1.560059,-0.926270,37.475586,-46.020508,38.269043
266,-0.946289,-1.458984,-0.545898,95.764160,-15.686035,4.028320
267,-0.827637,-1.119141,-0.101562,101.074219,-5.920410,-13.244629
268,-0.743652,-0.869629,-0.054688,17.761230,5.371094,-32.104492
269,-0.613770,-0.878906,-0.060547,-74.035645,23.620605,-50.964355
270,-0.566406,-0.949707,-0.076172,-105.895996,18.615723,-55.786133
271,-0.556152,-0.999023,-0.165527,-129.699707,3.417969,-60.058594
272,-0.586914,-0.991699,-0.353516,-136.108398,-12.268066,-62.988281
273,-0.592285,-0.848145,-0.701172,-88.256836,-19.165039,-66.040039
274,-0.552246,-0.722168,-0.686035,-54.931641,-12.817383,-58.532715
275,-0.507324,-0.615723,-0.628906,-34.912109,-8.056641,-46.813965
276,-0.475098,-0.521484,-0.523926,-25.756836,-5.737305,-28.503418
277,-0.468262,-0.510742,-0.532715,-37.109375,-8.789062,-27.038574
278,-0.445801,-0.511719,-0.554688,-43.518066,-14.160156,-28.747559
279,-0.304688,-0.502930,-0.632812,-40.405273,-26.062012,-35.095215
280,-0.233887,-0.463379,-0.621094,-17.761230,-34.179688,-36.926270
281,-0.204590,-0.396973,-0.639160,1.342773,-36.132812,-30.029297
282,-0.190918,-0.097168,-0.560547,1.159668,-7.934570,-4.333496
283,-0.208008,-0.060547,-0.502441,34.606934,-17.517090,26.733398
284,-0.292969,-0.179688,-0.533203,28.564453,-10.925293,37.719727
285,-0.392578,-0.309082,-0.415527,1.220703,13.244629,28.076172
286,-0.366699,-0.327148,-0.309570,-6.225586,5.981445,23.132324
287,-0.314453,-0.300293,-0.226562,-6.042480,-11.230469,25.451660
288,-0.297363,-0.294434,-0.315918,11.535645,-31.555176,46.813965
289,-0.360352,-0.357910,-0.344238,23.803711,-30.639648,53.771973
290,-0.436523,-0.425293,-0.345215,39.367676,-29.602051,53.039551
291,-0.575684,-0.527832,-0.491211,67.504883,-27.526855,39.123535
292,-0.653320,-0.600586,-0.695312,81.115723,-15.502930,27.648926
293,-0.762207,-0.978516,-1.076172,114.685059,30.334473,0.244141
294,-0.731445,-1.159668,-1.092285,132.385254,43.701172,-15.808105
295,-0.589844,-1.172363,-0.972656,143.981934,42.419434,-19.531250
296,-0.450684,-1.206055,-0.892090,150.512695,30.334473,-12.817383
297,-0.261230,-1.285156,-0.963867,192.382812,28.442383,-11.596680
298,-0.231445,-1.253418,-0.964844,238.159180,43.090820,-23.620605
299,-0.225586,-1.174316,-0.740723,283.813477,64.941406,-48.889160
300,-0.105469,-0.801270,0.186523,257.019043,23.132324,-36.010742
301,-0.218750,-0.857910,0.392090,174.621582,-26.794434,7.995605
302,-0.437500,-1.049805,0.337891,65.063477,-69.091797,55.053711
303,-0.913574,-1.575195,-0.312012,-84.594727,-87.524414,86.853027
304,-1.085938,-1.520996,-0.544434,-82.275391,-61.828613,63.842773
305,-1.169922,-1.166992,-0.438965,-69.091797,-21.301270,41.137695
306,-1.103027,-0.543457,-0.142090,-43.395996,26.672363,30.151367
307,-0.932617,-0.497559,0.179688,13.549805,31.738281,27.587891
308,-0.703613,-0.553711,0.547363,46.264648,-14.343262,15.075684
309,-0.431641,-0.753906,0.347656,44.799805,-23.864746,8.728027
310,-0.383301,-0.845215,0.168945,42.419434,-22.094727,2.502441
311,-0.343750,-0.883301,-0.045410,45.410156,-13.305664,-4.211426
312,-0.109375,-0.956543,0.322754,26.977539,-88.684082,24.719238
313,-0.258301,-1.261719,-1.050293,13.854980,-238.525391,53.466797
314,-0.215332,-0.830566,-1.030762,-16.296387,-214.599609,52.917480
315,-0.511719,-0.563965,-1.246582,-33.203125,-95.031738,76.904297
316,-0.589844,-0.574707,-1.030273,-21.728516,-19.592285,72.509766
317,-0.600586,-0.629395,-0.724609,-1.342773,38.208008,52.856445
318,-0.688965,-0.801270,-0.214844,45.654297,96.557617,-7.873535
319,-0.620117,-0.768555,0.065918,44.250488,105.957031,-43.823242
320,-0.526855,-0.668457,0.165527,23.254395,121.643066,-66.345215
321,-0.595703,-0.640137,0.422363,-22.827148,145.996094,-78.796387
322,-0.621094,-0.439453,0.147949,-161.682129,219.299316,-98.937988
323,-0.077148,0.044922,0.159668,-207.092285,250.915527,-76.171875
324,0.114258,0.120117,0.408691,-251.342773,235.839844,-23.986816
325,-0.024414,0.160645,0.290039,-305.114746,140.197754,57.617188
326,-0.121582,0.117188,0.272461,-318.481445,65.246582,69.946289
327,-0.154785,-0.044922,0.325684,-291.564941,-47.241211,59.082031
328,-0.163574,-0.186523,0.166504,-84.411621,-358.459473,-27.954102
329,-0.269043,-0.188477,-0.124023,-26.184082,-447.692871,-45.104980
330,-0.257324,-0.335449,-0.661133,36.560059,-476.318359,-46.325684
331,-1.475586,-3.913574,-6.000488,77.575684,-153.320312,-148.193359
332,-1.739258,-3.199707,-2.908203,61.035156,161.987305,-303.466797
333,-0.716309,-0.774902,-0.126953,105.529785,160.888672,-212.768555
334,-0.335938,0.095703,0.876953,94.665527,15.869141,-6.225586
335,-1.154785,-0.322754,0.334961,123.657227,-173.950195,212.402344
336,-1.404297,-0.559082,0.050293,119.079590,-159.362793,204.956055
337,-1.616211,-0.852539,-0.165527,43.701172,-78.002930,140.075684
338,-1.532227,-0.723633,-0.061035,-137.023926,87.646484,18.493652
339,-1.285645,-0.699219,0.158691,-92.285156,65.795898,20.568848
340,-1.132324,-0.697754,0.198730,-22.399902,11.657715,28.320312
341,-0.996582,-0.695801,0.134277,60.729980,-61.523438,11.535645
342,-0.773926,-0.654297,-0.051270,64.208984,-56.640625,-13.610840
343,-0.694336,-0.595703,-0.106934,54.870605,-29.907227,-37.597656
344,-0.649902,-0.590332,0.091309,56.762695,21.606445,-61.096191
345,-0.646484,-0.662109,0.246582,73.791504,18.981934,-71.472168
346,-0.599121,-0.700195,0.398926,107.604980,-19.531250,-95.764160
347,-0.575684,-0.717773,0.390625,111.694336,-35.400391,-103.271484
348,-0.565918,-0.761230,0.363281,102.294922,-43.334961,-107.360840
349,-0.564941,-0.813477,0.349609,79.589844,-42.602539,-106.262207
350,-0.625488,-1.083984,0.290039,3.295898,-19.653320,-89.904785
351,-0.646484,-1.217773,0.220703,-46.936035,-6.286621,-84.899902
352,-0.585449,-1.275879,0.093750,-99.670410,4.272461,-84.167480
353,-0.461426,-1.278320,-0.199219,-138.000488,5.920410,-86.608887
354,-0.128906,-1.076172,-1.544922,-12.084961,-21.606445,-106.628418
355,-0.035156,-0.663574,-1.480957,100.524902,-18.798828,-97.778320
356,-0.261719,-0.370117,-0.847656,126.281738,79.284668,-73.486328
357,-0.307129,-0.316895,-0.536133,97.412109,110.900879,-49.987793
358,-0.332031,-0.792969,-0.014648,72.509766,103.820801,-39.550781
359,-0.167480,-0.813477,0.593750,101.928711,2.624512,-77.514648
360,-0.201172,-0.138672,-0.429199,139.099121,-47.119141,41.198730
361,-0.334473,-0.392578,-0.395508,79.101562,17.089844,69.702148
362,-0.332031,-0.969238,-0.184570,18.554688,65.490723,38.208008
363,-0.162109,-0.332520,0.114746,7.202148,27.954102,-0.976562
364,-0.257324,-0.455566,-0.113281,1.586914,12.207031,41.687012
365,-0.370117,-0.866211,-0.353027,0.854492,10.803223,49.438477
366,-0.381836,-1.100098,-0.443359,1.953125,23.925781,35.522461
367,-0.280762,-1.215332,-0.415527,-9.338379,36.437988,8.666992
368,-0.350098,-1.166504,-0.496582,0.976562,34.912109,13.549805
369,-0.510742,-1.200684,-0.494141,16.418457,30.578613,18.798828
370,-0.562012,-1.383789,-0.812988,45.837402,45.776367,-12.268066
371,-0.453613,-1.263184,-0.851562,58.593750,74.523926,-23.559570
372,-0.374512,-1.068848,-0.603027,55.969238,104.248047,-27.160645
373,-0.511719,-0.898438,-0.060059,-41.564941,103.271484,-14.831543
374,-0.604980,-0.894531,-0.095215,-101.806641,95.336914,-2.319336
375,-0.735840,-1.029785,-0.174316,-145.019531,93.383789,18.066406
376,-1.134766,-1.558105,-0.021973,-190.246582,71.838379,30.700684
377,-1.274902,-1.714844,0.045410,-188.598633,40.649414,11.657715
378,-1.162598,-1.489746,0.133789,-159.057617,-26.977539,-35.095215
379,-1.005371,-1.233887,0.166016,-136.779785,-57.434082,-56.884766
380,-0.752441,-0.828613,0.172363,-105.285645,-87.402344,-60.729980
381,-0.624023,-0.854492,-0.042480,-29.357910,-115.051270,-50.964355
382,-0.440918,-0.690430,-0.043945,7.873535,-112.792969,-50.109863
383,-0.274902,-0.597656,-0.055176,30.334473,-101.684570,-34.851074
384,-0.174316,-0.589844,-0.071289,42.175293,-81.542969,-18.188477
385,-0.147461,-0.666016,-0.114746,68.115234,-32.592773,-8.789062
386,-0.165039,-0.615234,-0.111816,84.167480,-11.657715,-5.371094
387,-0.196777,-0.545410,0.046387,89.599609,1.220703,5.554199
388,-0.259766,-1.041992,-0.491211,-114.624023,-124.145508,54.382324
389,-0.380371,-0.858887,-1.040527,-206.726074,-91.247559,72.204590
390,-0.480957,-0.613770,-0.828125,-222.167969,-62.500000,94.238281
391,-0.565430,-0.566895,-0.587891,-218.383789,-57.617188,103.210449
392,-0.632324,-0.521973,-0.448730,-230.590820,-23.559570,73.608398
393,-0.613770,-0.611328,-0.458496,-217.163086,-5.004883,47.302246
394,-0.373047,-0.604492,-0.418457,-124.511719,18.005371,-15.014648
395,-0.244629,-0.508789,-0.286133,-60.424805,23.193359,-33.935547
396,-0.135742,-0.397949,-0.075195,-19.897461,25.024414,-44.799805
397,-0.044922,-0.308105,0.077637,-4.394531,21.911621,-49.072266
398,0.022949,-0.172852,-0.058594,-18.371582,9.155273,-30.761719
399,-0.106445,-0.283691,-0.285156,-12.878418,14.587402,-27.832031
400,-0.218750,-0.301270,-0.343750,0.488281,16.540527,-35.278320
401,-0.333496,-0.318359,-0.464844,23.437500,12.329102,-52.917480
402,-0.337402,-0.315918,-0.507324,36.376953,6.835938,-56.945801
403,-0.329590,-0.313477,-0.550781,46.752930,-2.197266,-55.847168
404,-0.312012,-0.394531,-0.799805,22.399902,-23.193359,-36.254883
405,-0.355469,-0.708008,-1.291992,-5.493164,-24.780273,-21.667480
406,-0.432129,-1.613770,-2.181641,-15.075684,7.690430,-13.916016
407,-0.551270,-2.486816,-2.458008,31.188965,125.610352,-15.197754
408,-0.566895,-0.611328,0.405273,85.021973,73.120117,39.367676
409,-0.794434,-0.295410,1.029297,61.523438,-33.630371,90.820312
410,-1.061523,-0.726074,-0.069824,-20.324707,-106.140137,55.969238
411,-1.019043,-0.761230,-0.293457,-28.869629,-61.584473,19.653320
412,-0.847168,-0.678223,-0.378418,-41.259766,-23.132324,6.042480
413,-1.037598,-1.533691,-0.868652,-240.112305,62.622070,19.226074
414,-0.870605,-1.771973,-0.798340,-132.690430,-19.042969,25.024414
415,-0.642090,-1.247070,-0.478516,41.564941,-80.566406,29.235840
416,-0.768555,-0.877930,0.191406,52.368164,-49.865723,38.574219
417,-0.638184,-0.908203,0.339355,12.939453,-55.847168,1.770020
418,-0.531250,-0.582031,-0.042480,-47.912598,-52.062988,-54.626465
419,-0.543457,-0.509766,-0.209473,-67.260742,-23.925781,-54.016113
420,-0.529297,-0.685059,-0.304688,-7.995605,-3.601074,-41.809082
421,-0.474121,-0.819336,-0.294434,63.781738,-10.437012,-30.700684
422,-0.474609,-1.000977,-0.268555,125.122070,-15.563965,-22.155762
423,-0.520020,-1.195801,-0.343262,162.475586,-12.573242,-23.132324
424,-0.635742,-1.342773,-0.555176,197.448730,29.724121,-61.645508
425,-0.559082,-1.061523,-0.474121,186.035156,47.241211,-66.833496
426,-0.538574,-0.840820,-0.614258,156.372070,40.771484,-52.795410
427,-0.484863,-0.779297,-0.930176,171.936035,37.963867,-60.058594
428,-0.363281,-0.666992,-0.839355,174.438477,50.170898,-68.725586
429,-0.330566,-0.629883,-0.680176,140.319824,68.603516,-67.626953
430,-0.297363,-0.613281,-0.626465,95.397949,86.608887,-58.776855
431,-0.187500,-0.557617,-0.504883,22.949219,114.685059,-34.545898
432,-0.124023,-0.531250,-0.375000,-4.455566,117.797852,-20.385742
433,-0.099121,-0.457031,-0.293945,-56.457520,113.342285,-6.896973
434,-0.140625,-0.372559,-0.316895,-75.500488,114.807129,-3.173828
435,-0.186523,-0.292480,-0.323242,-79.895020,116.455078,6.591797
436,-0.352539,-0.372559,-0.322266,-58.837891,108.276367,29.296875
437,-0.389648,-0.481445,-0.299805,-41.809082,102.172852,37.658691
438,-0.426758,-0.544434,-0.164062,-31.555176,88.989258,44.067383
439,-0.452637,-0.608398,-0.130371,-28.015137,68.847656,48.034668
440,-0.443848,-0.714844,-0.279785,-7.385254,24.108887,47.790527
441,-0.378906,-0.748047,-0.509766,14.221191,18.005371,46.447754
442,-0.324219,-0.831055,-0.585938,33.203125,24.536133,48.706055
443,-0.328125,-1.037109,-0.732422,56.884766,45.349121,50.048828
444,-0.346680,-1.137207,-0.796387,62.377930,57.067871,46.997070
445,-0.343750,-1.289551,-0.942383,71.899414,76.721191,36.376953
446,-0.239258,-1.188965,-0.676270,81.909180,117.492676,13.305664
447,-0.235352,-1.023926,-0.172852,44.372559,104.675293,14.526367
448,-0.368164,-1.008301,-0.063477,-16.174316,64.392090,13.854980
449,-0.636230,-1.037598,-0.270508,-80.749512,-13.183594,-0.549316
450,-0.734375,-1.133789,-0.399902,-105.468750,-25.695801,3.479004
451,-0.761719,-1.242188,-0.625488,-118.774414,-14.770508,10.925293
452,-0.666992,-1.176758,-0.583496,-122.680664,9.094238,23.620605
453,-0.569824,-1.213867,-0.211914,-150.573730,12.939453,27.709961
454,-0.430176,-1.124023,-0.225586,-151.977539,-4.089355,9.765625
455,-0.308594,-1.057617,-0.328125,-131.652832,-18.127441,-1.831055
456,-0.362305,-1.012695,-0.298340,-72.692871,-29.296875,-1.220703
457,-0.399414,-0.984375,-0.292969,-44.738770,-27.526855,5.432129
458,-0.404785,-0.937500,-0.288086,-18.798828,-18.127441,17.944336
459,-0.450195,-1.013672,0.026367,19.287109,-7.629395,38.757324
460,-0.500488,-1.264160,0.272461,40.527344,-37.353516,26.062012
461,-0.545898,-1.343262,0.205566,82.092285,-91.064453,-0.610352
462,-0.478027,-0.741699,-0.474121,143.981934,-126.953125,-2.258301
463,-0.425781,-0.372070,-0.330566,137.023926,-107.849121,33.813477
464,-0.524414,-0.353516,0.175781,62.133789,-130.920410,62.927246
465,-0.593750,-0.431641,-1.187988,-118.408203,-181.945801,56.823730
466,-0.591309,-0.492676,-1.366699,-123.046875,-150.878906,46.875000
467,-0.551270,-0.422363,-1.168457,-139.526367,-108.520508,37.719727
468,-0.431641,-0.163574,-0.881836,-146.240234,-33.935547,38.391113
469,-0.374512,-0.122559,-0.641602,-150.207520,-2.746582,41.992188
470,-0.306152,-0.146484,-0.376953,-170.166016,21.667480,38.757324
471,-0.272949,0.008301,0.185547,-210.205078,36.682129,30.456543
472,-0.414551,-0.044922,0.062012,-219.360352,18.981934,24.230957
473,-0.495117,-0.180664,-0.348633,-173.645020,22.277832,7.324219
474,-0.402344,-0.195801,-0.193848,-52.368164,42.968750,-18.676758
475,-0.355957,-0.211914,-0.164062,-7.385254,35.766602,-24.658203
476,-0.319824,-0.233887,-0.313965,41.687012,23.986816,-30.700684
477,-0.336426,-0.330566,-0.472656,156.127930,-0.793457,-45.654297
478,-0.409180,-0.480957,-0.576660,207.214355,-7.141113,-62.988281
479,-0.388672,-0.583008,-0.783203,250.549316,-6.591797,-90.637207
480,-0.044434,-1.020020,-0.787598,276.855469,-61.096191,-109.680176
481,0.290527,-1.941406,-1.203125,176.330566,-112.182617,-71.228027
482,0.370117,-2.775391,-2.753418,11.230469,-38.146973,-52.856445
483,-0.044922,-1.169434,-0.839844,-9.277344,19.653320,30.578613
484,-1.439453,-0.653809,0.399414,-110.595703,-115.173340,121.520996
485,-1.430176,-0.465820,0.325684,-116.394043,-153.137207,76.660156
486,-1.592773,-0.311523,-0.299316,-85.021973,-136.962891,28.015137
487,-1.229492,-0.395020,-0.662109,-21.179199,8.728027,-22.766113
488,-1.375000,-0.929688,-0.904297,-3.417969,67.443848,-55.847168
489,-1.038086,-0.919434,-0.791992,-65.979004,124.877930,-80.322266
490,-0.655273,-1.565918,-0.669434,65.917969,-6.469727,-23.986816
491,-0.681641,-1.496094,-0.590820,118.347168,-2.502441,-22.827148
492,-0.718262,-1.351074,-0.365723,104.370117,29.785156,-37.048340
493,-0.585449,-0.812012,-0.153320,-4.211426,101.989746,-56.640625
494,-0.518555,-0.464355,-0.255371,-48.583984,152.282715,-45.532227
495,-0.554199,-0.448242,-0.125000,-37.536621,156.188965,-33.142090
496,-0.695312,-0.767578,0.165039,-19.653320,131.896973,-35.827637
497,-0.563477,-0.836914,0.096680,21.179199,42.968750,-70.312500
498,-0.523438,-0.896973,-0.085938,48.278809,13.977051,-77.636719
499,-0.518555,-0.994629,-0.185547,67.749023,-0.854492,-87.585449
500,-0.468262,-1.073730,-0.253906,78.491211,-6.286621,-98.937988
501,-0.103516,-0.940430,-0.330078,86.425781,-8.361816,-77.026367
502,0.027344,-0.841309,-0.519043,89.294434,5.432129,-44.433594
503,0.014648,-0.832520,-0.630371,92.651367,30.029297,-9.216309
504,-0.122559,-0.863281,-0.750488,109.741211,98.266602,21.911621
505,-0.261719,-0.656250,-0.552734,114.807129,119.995117,27.832031
506,-0.241211,-0.506836,-0.439941,120.544434,122.680664,36.926270
507,-0.232910,-0.482422,-0.402832,128.662109,110.778809,39.123535
508,-0.070312,-0.401855,-0.303223,110.778809,84.899902,29.479980
509,-0.067871,-0.447266,-0.337402,88.439941,74.523926,31.494141
510,-0.238770,-0.676758,-0.533691,64.880371,70.312500,10.559082
511,-0.249512,-0.672363,-0.589355,64.758301,80.627441,2.014160
512,-0.221680,-0.612305,-0.464355,60.241699,89.843750,2.868652
513,-0.177734,-0.584473,-0.219727,44.982910,83.190918,10.314941
514,-0.051270,-0.701172,-0.118652,6.225586,37.719727,13.000488
515,-0.010742,-0.773438,-0.164062,-0.183105,12.695312,6.591797
516,-0.025879,-0.852051,-0.297363,-2.075195,-4.577637,-3.540039
517,-0.040527,-0.859375,-0.374512,-2.441406,-9.765625,-10.070801
518,-0.136230,-0.840820,-0.321777,4.089355,-31.372070,-0.915527
519,-0.198730,-0.903320,-0.364258,12.329102,-45.776367,3.051758
520,-0.280273,-1.229004,-0.671875,29.174805,-41.137695,-4.394531
521,-0.325684,-1.401855,-0.895508,51.513672,-14.526367,-9.887695
522,-0.308594,-1.397949,-0.926758,72.204590,23.315430,-14.709473
523,-0.232422,-1.171875,-0.862793,79.833984,60.668945,-8.666992
524,-0.483887,-1.115234,-0.467773,68.481445,99.731445,-9.460449
525,-0.554199,-1.022949,-0.251953,49.377441,83.618164,-22.277832
526,-0.774414,-1.254883,-0.105957,-44.860840,48.950195,-29.724121
527,-0.844727,-1.519531,-0.223145,-94.116211,39.489746,-41.931152
528,-0.659668,-1.591797,-0.348145,-120.422363,34.790039,-56.762695
529,-0.041016,-1.398926,-0.748535,-100.952148,41.259766,-42.907715
530,0.024902,-1.158203,-0.747070,-78.918457,66.711426,-19.165039
531,-0.111816,-0.893066,-0.284180,-80.871582,80.688477,-1.098633
532,-0.191406,-0.683594,-0.048828,-120.971680,78.735352,7.934570
533,-0.167480,-0.640625,-0.157715,-226.440430,76.354980,-0.427246
534,-0.136719,-0.716797,-0.201660,-247.680664,73.547363,-5.187988
535,-0.145996,-0.798340,-0.286133,-242.553711,57.128906,-3.601074
536,-0.239258,-0.899902,-0.399414,-177.124023,19.042969,6.347656
537,-0.251465,-0.755859,-0.253418,-144.775391,-6.347656,24.536133
538,-0.215820,-0.630371,-0.221191,-109.741211,-49.194336,55.358887
539,-0.387695,-0.887695,-0.261230,-78.979492,-76.049805,68.664551
540,-0.394531,-0.975098,-0.759766,-19.836426,-81.420898,45.898438
541,-0.509277,-1.081543,-1.037598,-8.666992,-43.945312,32.287598
542,-0.804688,-0.618652,-0.623535,-18.249512,-13.000488,46.020508
543,-0.841309,-0.556152,-0.510742,-26.611328,-32.775879,63.781738
544,-0.675781,-0.617188,-0.220215,-33.691406,-68.786621,67.443848
545,-0.272949,-0.836914,0.069336,-39.978027,-126.831055,41.442871
546,0.471680,-0.316406,-0.590332,-44.128418,-176.635742,-10.314941
547,0.637207,-0.231445,-0.746094,-46.142578,-135.803223,-9.582520
548,0.575195,-0.037109,-0.413574,-46.081543,-93.078613,-2.380371
549,0.033691,0.017090,0.010742,-63.110352,-86.486816,20.019531
550,-0.150879,-0.203613,-0.191895,-57.739258,-80.566406,11.291504
551,-0.199219,-0.300781,-0.381348,-31.311035,-64.270020,-8.422852
552,-0.394043,-0.467773,-0.465332,18.005371,-16.845703,-50.292969
553,-0.390625,-0.501465,-0.463867,28.564453,-7.263184,-67.382812
554,-0.299805,-0.428711,-0.526367,32.470703,-14.526367,-77.941895
555,-0.138184,-0.492188,-0.816406,77.636719,-32.592773,-74.157715
556,-0.062988,-0.557617,-0.917480,109.619141,-53.833008,-70.556641
557,0.071289,-0.715332,-1.042480,130.310059,-60.485840,-59.692383
558,-0.073242,-1.444336,-0.926270,149.108887,-11.291504,-42.663574
559,-0.242188,-1.680176,-1.192871,158.996582,12.634277,-57.922363
560,-0.587402,-1.465332,-1.248047,175.292969,38.452148,-55.969238
561,-0.931641,-0.917969,-0.545410,176.330566,1.831055,-11.108398
562,-0.899414,-0.715820,-0.596680,15.014648,-117.065430,27.160645
563,-0.592285,-0.788574,-0.862793,-53.955078,-107.299805,13.916016
564,-0.599121,-1.147949,-1.048828,-92.041016,-62.927246,3.417969
565,-0.513672,-1.251953,-0.306152,-29.479980,-10.681152,-21.606445
566,-0.622070,-1.184082,0.025391,43.273926,-18.554688,-10.070801
567,-0.785156,-1.307129,0.030273,78.125000,-4.638672,-8.789062
568,-0.796875,-1.145996,0.455078,86.853027,-44.433594,8.789062
569,-0.392090,-0.778809,0.375977,48.339844,-69.885254,-1.342773
570,-0.122070,-0.471680,0.200684,-57.739258,-72.753906,-17.089844
571,-0.269043,-0.923340,-0.102539,-76.110840,-57.189941,-49.133301
572,-0.242188,-0.826660,-0.075195,-47.912598,-54.077148,-65.856934
573,-0.244629,-0.613770,0.005859,2.868652,-63.537598,-60.974121
574,-0.378906,-0.674805,-0.159180,119.140625,-76.354980,-21.911621
575,-0.448242,-0.958008,-0.069336,151.306152,-65.429688,-16.113281
576,-0.635742,-1.373047,-0.157715,152.709961,-44.799805,-27.587891
577,-0.883301,-2.082031,-0.159180,91.369629,3.601074,-63.659668
578,-0.444824,-1.441406,-0.540039,-82.214355,100.036621,-88.745117
579,-0.499023,-1.377441,-1.106934,-133.483887,140.441895,-82.397461
580,-0.714844,-1.396973,-1.173828,-148.010254,174.194336,-111.694336
581,0.001953,-0.326172,-0.018555,35.400391,33.081055,-79.284668
582,0.150879,-0.580566,-0.024902,115.051270,-49.987793,-76.293945
583,0.154785,-0.886230,-0.472656,179.992676,-70.251465,-90.332031
584,0.099121,-0.445312,-0.400391,156.799316,47.790527,-84.350586
585,0.077637,-0.450684,-0.458008,109.985352,106.933594,-72.631836
586,0.039551,-0.457031,-0.544922,79.650879,151.855469,-71.289062
587,0.051270,-0.353027,-0.281738,53.771973,176.696777,-40.954590
588,-0.026855,-0.607910,-0.181152,54.565430,155.395508,-33.081055
589,-0.082031,-0.933594,-0.136230,71.899414,113.403320,-53.955078
590,-0.050293,-0.914551,-0.254395,74.707031,94.177246,-49.560547
591,-0.078125,-0.564941,-0.235840,84.899902,75.134277,-14.526367
592,-0.243652,-0.484375,-0.141602,99.182129,47.485352,33.447266
593,-0.520996,-1.075195,-0.291504,74.890137,19.958496,32.470703
594,-0.411621,-1.285156,-0.499023,-9.643555,52.307129,-13.000488
595,-0.083496,-0.906738,-0.249023,-31.188965,40.466309,-22.155762
596,0.227539,-0.719727,-0.086914,-71.960449,-60.974121,0.549316
597,0.024414,-0.955566,-0.475098,-109.680176,-71.411133,12.878418
598,0.010742,-1.078125,-0.690918,-103.942871,-56.030273,9.826660
599,0.144531,-1.062012,-0.631348,-68.786621,-36.010742,9.948730
600,0.293945,-1.060059,-0.511230,-69.885254,-0.244141,9.887695
601,0.213379,-1.020020,-0.536133,-112.670898,69.824219,37.292480
602,-0.069336,-0.944336,-0.317383,-140.686035,75.683594,40.771484
603,-0.120117,-0.762207,-0.118652,-183.227539,56.884766,41.381836
604,-0.062012,-0.639160,0.041504,-291.259766,0.244141,64.392090
605,0.012695,-0.734863,-0.167969,-335.449219,-14.648438,74.951172
606,0.170410,-0.675293,-0.276855,-368.530273,-25.695801,97.412109
607,0.265137,-0.723145,-0.687012,-352.783203,-117.370605,208.496094
608,-0.030762,-0.990234,-1.313477,-281.555176,-137.451172,242.736816
609,-0.657227,-1.551270,-1.622070,-216.064453,-91.979980,233.154297
610,-0.885254,-1.353027,-0.733887,67.565918,-59.570312,84.411621
611,-0.790039,-0.864258,-0.120117,172.790527,-104.858398,88.012695
612,-0.807617,-0.970703,-0.310059,261.718750,-134.155273,113.220215
613,-1.036621,-1.113281,-0.066895,255.432129,-63.659668,88.623047
614,-1.049316,-1.089355,0.088867,198.181152,-24.230957,51.940918
615,-1.031250,-1.010742,0.203125,123.352051,-3.967285,12.878418
616,-0.654297,-0.789551,0.774902,-35.583496,-132.263184,-20.507812
617,-0.383301,-0.873047,-0.428711,-102.355957,-265.258789,-6.652832
618,-0.316406,-0.872559,-1.199219,-121.276855,-285.766602,-3.601074
619,-0.459961,-0.466797,-1.497559,-184.997559,-175.109863,10.131836
620,-0.448730,-0.369141,-1.404297,-202.148438,-87.402344,15.380859
621,-0.369629,-0.274902,-1.142578,-180.236816,-16.357422,20.629883
622,-0.269531,-0.283203,-0.529785,-123.291016,71.899414,27.465820
623,-0.205566,-0.296875,-0.268555,-96.679688,83.740234,21.118164
624,-0.138672,-0.280273,-0.050781,-69.091797,77.453613,13.977051
625,-0.132324,-0.223633,0.250488,-16.723633,26.611328,5.187988
626,-0.254883,-0.235352,0.257812,-5.126953,-0.061035,-2.075195
627,-0.296875,-0.285645,0.096191,0.976562,-16.967773,-14.892578
628,-0.261230,-0.337891,-0.287109,44.311523,-23.498535,-34.240723
629,-0.347656,-0.310059,-0.353516,70.739746,-27.893066,-47.912598
630,-0.439453,-0.231445,-0.414551,90.148926,-37.658691,-63.598633
631,-0.394043,-0.055176,-0.456055,117.309570,-51.818848,-71.838379
632,-0.393066,-0.104492,-0.382324,110.412598,-53.466797,-54.992676
633,-0.414551,-0.252930,-0.417480,90.393066,-62.255859,-37.658691
634,-0.456055,-0.552734,-0.688477,70.068359,-77.270508,-27.282715
635,-0.463379,-2.140137,-2.235840,3.662109,-32.958984,-21.362305
636,-0.656738,-3.053711,-2.938965,-1.403809,90.942383,-60.302734
637,-0.840332,-0.947266,-0.134277,139.099121,48.522949,33.447266
638,-0.989746,-0.381348,0.329590,147.949219,-28.930664,64.025879
639,-1.033691,-0.045410,0.514648,100.219727,-78.369141,76.416016
640,-0.974121,-0.082031,0.211426,25.878906,-91.857910,59.875488
641,-0.446777,-0.079590,-0.261230,-83.496094,-42.236328,-39.611816
642,-0.337891,-0.087402,-0.364746,-86.547852,-20.874023,-64.208984
643,-0.543457,-0.354980,-0.317383,-27.954102,18.920898,-65.490723
644,-0.965332,-1.091797,-0.635254,-89.111328,-13.488770,-36.071777
645,-0.851074,-2.294434,-1.161133,123.596191,-12.145996,-35.339355
646,-0.794434,-1.771484,-0.262695,207.214355,-4.638672,21.606445
647,-0.879395,-1.639648,0.059570,195.251465,6.774902,43.334961
648,-0.680664,-0.890625,0.056641,139.099121,61.340332,8.789062
649,-0.583496,-0.667480,0.134277,111.999512,85.083008,-7.873535
650,-0.502930,-0.576172,0.235840,82.824707,98.571777,-20.568848
651,-0.469727,-0.589355,0.331055,18.127441,96.740723,-37.902832
652,-0.521973,-0.665527,0.306152,-15.380859,90.026855,-41.442871
653,-0.590332,-0.785156,0.260254,-41.198730,78.857422,-44.616699
654,-0.668945,-0.997070,-0.038086,-51.391602,40.954590,-61.523438
655,-0.649902,-1.019531,-0.245117,-25.695801,17.761230,-64.636230
656,-0.547363,-0.963867,-0.318359,4.760742,-3.479004,-59.753418
657,-0.435059,-0.895996,-0.314941,17.150879,-21.911621,-46.569824
658,-0.310547,-0.812988,-0.410645,7.507324,-42.297363,-29.785156
659,-0.272461,-0.731934,-0.558105,17.211914,-52.551270,-29.052734
660,-0.214844,-0.372559,-0.901855,98.266602,-33.325195,-27.587891
661,-0.202148,-0.332520,-0.634277,88.012695,1.281738,-18.371582
662,-0.228027,-0.365723,-0.473633,51.086426,31.860352,-12.939453
663,-0.209961,-0.371094,-0.470703,15.991211,55.358887,-4.699707
664,-0.192871,-0.491699,-0.473633,-3.601074,91.125488,16.052246
665,-0.224609,-0.522461,-0.417969,0.976562,101.806641,22.277832
666,-0.258789,-0.520996,-0.326660,10.009766,103.454590,26.367188
667,-0.318848,-0.610840,-0.185059,23.864746,82.092285,34.057617
668,-0.329590,-0.698242,-0.123535,20.568848,62.988281,35.034180
669,-0.331055,-0.798340,-0.112305,11.474609,40.527344,34.240723
670,-0.334961,-0.962402,-0.131348,-22.827148,-1.708984,21.545410
671,-0.305664,-1.000000,-0.241699,-33.142090,-24.902344,10.559082
672,-0.253418,-0.978516,-0.489746,-20.507812,-44.250488,3.967285
673,-0.136719,-1.015625,-1.038574,56.823730,-32.592773,10.986328
674,-0.149902,-1.110352,-1.150879,90.759277,2.624512,17.150879
675,-0.198242,-1.231445,-1.105469,107.055664,44.921875,20.690918
676,-0.288574,-1.173828,-0.710938,53.466797,102.050781,13.610840
677,-0.333984,-1.011719,-0.593750,7.873535,103.637695,5.920410
678,-0.373047,-0.891602,-0.423828,-33.935547,83.740234,-1.403809
679,-0.407227,-0.825195,-0.270996,-76.049805,48.095703,-5.798340
680,-0.514160,-0.932129,-0.387695,-152.404785,-8.911133,17.639160
681,-0.638672,-1.091797,-0.452637,-172.180176,-19.836426,35.827637
682,-0.767578,-1.292969,-0.578125,-173.034668,-23.620605,50.415039
683,-0.788574,-1.503418,-0.534668,-130.737305,-21.362305,33.752441
684,-0.657227,-1.372559,-0.389160,-105.346680,-28.747559,16.906738
685,-0.547363,-1.192383,-0.314941,-74.768066,-37.109375,2.441406
686,-0.444824,-0.834473,-0.269043,9.582520,-23.742676,3.295898
687,-0.439941,-0.759277,-0.031738,25.268555,-11.596680,12.329102
688,-0.484375,-0.814941,0.052246,25.390625,-1.281738,13.732910
689,-0.525391,-0.762695,0.008789,20.507812,26.428223,10.192871
690,-0.543945,-0.758301,-0.009277,15.808105,41.198730,13.427734
691,-0.525879,-0.785156,-0.063965,10.253906,46.386719,7.629395
692,-0.495605,-0.724121,-0.058594,8.666992,31.982422,4.089355
693,-0.487305,-0.694824,-0.113770,5.187988,11.657715,5.676270
694,-0.345215,-0.683594,0.316406,-12.634277,-28.564453,9.643555
695,-0.122070,-0.985352,-0.785645,-126.770020,-242.370605,45.043945
696,-0.363770,-0.878906,-1.020996,-158.508301,-258.544922,52.124023
697,-0.472168,-0.618164,-1.090332,-205.688477,-222.778320,55.297852
698,-0.395020,-0.286621,-0.946777,-244.018555,-112.609863,54.382324
699,-0.306641,-0.263672,-0.902344,-222.351074,-56.823730,46.325684
700,-0.216797,-0.288574,-0.750488,-187.011719,-2.502441,33.386230
701,-0.159668,-0.300293,-0.310547,-111.022949,59.387207,4.638672
702,-0.219727,-0.242676,-0.058105,-77.331543,52.429199,-2.075195
703,-0.309082,-0.245605,-0.059570,-52.246094,35.522461,-5.676270
704,-0.410645,-0.262695,-0.153809,-25.939941,21.972656,-8.483887
705,-0.600098,-0.374023,-0.408691,38.330078,-0.671387,-25.939941
706,-0.651855,-0.396484,-0.494629,71.166992,-11.474609,-41.564941
707,-0.716797,-0.398926,-0.532227,95.581055,-28.686523,-54.199219
708,-0.952148,-0.427246,-0.470703,106.750488,-75.927734,-39.916992
709,-1.138184,-0.628418,-0.509277,93.566895,-97.229004,-17.883301
710,-1.266113,-0.924316,-0.636230,85.693359,-110.717773,-0.915527
711,-0.642578,-0.895996,-1.590820,122.009277,-79.406738,-1.586914
712,-0.023438,-0.793945,-2.135742,157.470703,-3.906250,3.051758
713,0.255859,-1.194824,-2.056641,151.123047,88.684082,-18.554688
714,-0.847168,-0.653809,0.266602,-38.574219,13.122559,-15.747070
715,-0.984375,-0.372559,-0.119629,-130.432129,-43.579102,-15.747070
716,-0.782227,-0.218750,-0.434570,-137.451172,-46.936035,-6.408691
717,-0.731445,-0.382812,-0.195801,-56.091309,-8.361816,2.075195
718,-0.765625,-0.591309,-0.161621,-35.095215,4.333496,-2.197266
719,-0.856445,-0.753418,-0.176270,-4.821777,12.695312,-0.427246
720,-0.978516,-0.962402,-0.111328,30.761719,8.300781,7.202148
721,-1.058105,-1.338379,-0.036621,119.567871,-18.981934,13.793945
722,-0.850098,-1.243652,-0.006348,145.507812,-24.719238,-1.464844
723,-0.480957,-0.795410,0.024414,108.398438,14.648438,-29.663086
724,-0.354004,-0.680176,0.026367,82.519531,26.184082,-39.611816
725,-0.266602,-0.621582,-0.031738,68.847656,25.146484,-47.729492
726,-0.214355,-0.633301,-0.094727,64.880371,14.831543,-45.898438
727,-0.229492,-1.014648,-0.209473,81.848145,-14.160156,-29.357910
728,-0.294922,-1.167969,-0.171875,104.553223,-30.029297,-20.690918
729,-0.365723,-1.212891,-0.014160,120.239258,-47.546387,-13.366699
730,-0.352539,-1.106934,0.268066,65.490723,-81.970215,-14.526367
731,-0.326172,-1.111816,0.249023,22.216797,-94.421387,-22.216797
732,-0.291504,-1.095703,0.109863,-7.690430,-105.773926,-31.372070
733,-0.273438,-1.054688,-0.186035,-18.493652,-103.088379,-36.193848
734,-0.307129,-0.919434,-0.780762,23.559570,-36.071777,-43.151855
735,-0.309082,-0.778320,-1.024902,79.956055,14.404297,-46.508789
736,-0.309570,-0.625488,-0.939941,142.883301,63.964844,-50.781250
737,-0.315918,-0.392578,-0.424805,215.820312,101.196289,-27.038574
738,-0.450195,-0.443359,-0.272949,209.594727,95.031738,-4.455566
739,-0.747070,-0.500977,-0.250000,157.104492,75.134277,15.747070
740,-0.789062,-0.421875,-0.210938,132.629395,61.767578,17.272949
741,-0.772461,-0.387695,-0.185547,101.440430,48.828125,17.333984
742,-0.655273,-0.387695,-0.191406,27.526855,34.118652,16.296387
743,-0.539551,-0.362793,-0.206543,-6.530762,31.433105,25.634766
744,-0.472656,-0.466797,-0.218262,-28.137207,24.169922,43.151855
745,-0.470215,-0.771973,-0.237305,-38.818359,-0.915527,60.913086
746,-0.460938,-0.902832,-0.287598,-37.231445,-13.000488,62.255859
747,-0.456055,-1.067383,-0.355957,-33.691406,-18.859863,57.434082
748,-0.376465,-1.282715,-0.540039,-22.338867,-0.793457,28.076172
749,-0.324707,-1.362305,-0.712891,-16.601562,30.517578,14.099121
750,-0.302734,-1.441406,-0.866699,-4.943848,76.110840,3.845215
751,-0.519531,-1.222168,-0.692383,33.935547,142.639160,-10.375977
752,-0.554199,-0.958008,-0.422852,46.936035,143.310547,6.774902
753,-0.708984,-0.841797,0.053711,27.526855,74.829102,40.954590
754,-0.809082,-0.963379,0.322754,-84.838867,15.563965,55.053711
755,-0.866699,-1.083984,0.326172,-149.353027,-8.605957,62.438965
756,-0.918457,-1.258789,0.224121,-198.242188,-30.761719,60.485840
757,-0.809082,-1.377930,-0.098145,-198.913574,-67.749023,25.756836
758,-0.734375,-1.280762,-0.225586,-163.574219,-71.594238,12.084961
759,-0.699707,-1.113281,-0.310547,-126.525879,-54.748535,8.422852
760,-0.663086,-0.819336,-0.097168,-79.284668,-5.126953,5.798340
761,-0.645508,-0.724609,-0.012207,-58.471680,10.314941,0.488281
762,-0.626953,-0.671875,0.039551,-36.315918,22.033691,-4.211426
763,-0.642090,-0.645508,0.109375,5.554199,43.701172,-5.798340
764,-0.660645,-0.658203,0.163086,23.498535,50.048828,-2.441406
765,-0.690430,-0.676758,0.229980,41.076660,47.363281,-0.671387
766,-0.681152,-0.659668,0.293457,53.039551,28.686523,-1.464844
767,-0.506836,-0.645996,0.022949,67.443848,-8.178711,-13.427734
768,-0.401367,-0.645508,-0.077148,76.843262,-19.836426,-24.475098
769,-0.008301,-1.429688,-1.249512,-284.362793,-107.604980,-6.958008
770,-0.082520,-0.686523,-1.423828,-304.809570,-84.045410,26.367188
771,-0.305176,-0.420898,-1.181641,-253.479004,-75.012207,60.241699
772,-0.443359,-0.287109,-0.926758,-213.256836,-54.199219,67.260742
773,-0.400391,-0.218750,-0.230469,-193.542480,3.051758,39.794922
774,-0.294922,-0.127441,0.016113,-208.068848,27.832031,15.441895
775,-0.236816,-0.105469,0.030273,-204.467773,42.541504,-2.136230
776,-0.409180,-0.277344,-0.114258,-107.421875,28.808594,-26.855469
777,-0.421387,-0.249512,-0.159180,-56.823730,18.432617,-36.132812
778,-0.426758,-0.211914,-0.212891,-14.282227,6.958008,-41.076660
779,-0.492676,-0.202148,-0.435059,56.213379,-5.310059,-52.124023
780,-0.493652,-0.214844,-0.510742,90.454102,-13.610840,-58.349609
781,-0.486816,-0.234375,-0.584473,121.154785,-25.024414,-62.133789
782,-0.526855,-0.409668,-0.602051,153.747559,-54.016113,-60.241699
783,-0.581543,-0.577637,-0.675293,147.705078,-68.847656,-53.039551
784,-0.572754,-0.780273,-0.837402,121.154785,-80.688477,-40.466309
785,-0.592285,-1.905762,-1.689941,53.771973,-9.887695,-33.142090
786,-0.701660,-2.009277,-1.250000,24.475098,78.979492,-60.058594
787,-0.623047,-1.199707,-0.310547,-5.554199,89.416504,-55.908203
788,-0.843750,-0.375977,-0.060547,-26.794434,5.798340,-4.577637
789,-1.000488,-0.338867,-0.150879,-25.756836,-28.625488,10.070801
790,-0.859863,-0.482422,-0.411621,-22.888184,-50.781250,13.061523
791,-0.825684,-0.943359,-0.925781,-15.625000,-22.277832,9.155273
792,-0.870117,-1.362793,-0.460938,-112.976074,41.137695,-0.183105
793,-0.889648,-0.855957,-0.230957,-68.481445,-3.723145,32.043457
794,-0.993164,-0.765625,-0.119629,-9.521484,-12.939453,45.104980
795,-0.788574,-0.696289,0.009766,84.411621,10.620117,14.465332
796,-0.666992,-0.587891,0.159668,80.932617,18.310547,0.854492
797,-0.652832,-0.564941,0.181152,61.706543,16.357422,-8.544922
798,-0.583008,-0.627441,0.074707,47.058105,13.122559,-26.123047
799,-0.583008,-0.733398,-0.006836,73.242188,7.446289,-35.583496
800,-0.573730,-0.874023,-0.112793,120.239258,2.258301,-46.630859
801,-0.539062,-1.052734,-0.253418,216.430664,13.977051,-74.279785
802,-0.475586,-1.023926,-0.117676,239.562988,19.531250,-69.702148
803,-0.436523,-1.088379,0.028809,228.515625,18.432617,-42.419434
804,-0.464355,-1.396973,0.283691,131.591797,-3.845215,7.934570
805,-0.488770,-1.430664,0.279785,77.392578,-28.747559,4.455566
806,-0.419434,-1.300293,0.170898,41.564941,-60.791016,-12.573242
807,-0.345215,-1.065430,-0.014160,30.639648,-89.294434,-30.029297
808,-0.370117,-0.749023,-0.601562,47.363281,-97.412109,-44.738770
809,-0.396973,-0.544922,-1.055664,79.223633,-70.373535,-46.569824
810,-0.433594,-0.287598,-0.844238,127.197266,22.338867,-42.358398
811,-0.361328,-0.309082,-0.582520,117.431641,59.326172,-33.264160
812,-0.303711,-0.328613,-0.408691,96.374512,87.768555,-17.761230
813,-0.300781,-0.375977,-0.313477,76.110840,104.003906,-1.098633
814,-0.327148,-0.412598,-0.203125,60.668945,101.501465,21.179199
815,-0.369141,-0.446777,-0.158203,52.795410,92.651367,31.433105
816,-0.487305,-0.624512,-0.040039,15.686035,67.138672,45.166016
817,-0.522949,-0.710938,0.016602,-10.925293,48.950195,48.217773
818,-0.499512,-0.776367,0.034668,-32.592773,24.047852,50.476074
819,-0.424316,-0.936035,-0.082031,-51.452637,-27.404785,51.696777
820,-0.388672,-1.003418,-0.208984,-53.161621,-37.536621,50.476074
821,-0.371094,-1.107910,-0.350098,-46.508789,-36.254883,49.865723
822,-0.372070,-1.204102,-0.439941,-30.456543,-27.954102,47.912598
823,-0.489258,-1.416016,-0.620117,3.173828,10.498047,28.381348
824,-0.554199,-1.484863,-0.741211,19.775391,42.175293,8.789062
825,-0.543945,-1.244629,-0.887207,54.870605,123.596191,-25.390625
826,-0.505859,-1.028809,-0.625488,67.321777,152.099609,-25.512695
827,-0.449707,-0.811035,-0.105957,56.457520,142.211914,-7.568359
828,-0.644043,-0.975586,0.407227,-35.705566,46.630859,35.522461
829,-0.802734,-1.034668,0.391602,-90.637207,0.549316,47.729492
830,-0.949707,-1.139648,0.302734,-133.666992,-30.151367,52.429199
831,-1.021484,-1.207520,0.209961,-166.809082,-71.350098,22.644043
832,-0.958496,-1.076172,0.062012,-157.226562,-80.261230,6.896973
833,-0.876953,-0.907715,-0.093750,-138.793945,-66.101074,0.793457
834,-0.703613,-0.660645,-0.020996,-96.679688,-13.366699,5.126953
835,-0.676270,-0.630371,0.060059,-73.852539,4.882812,4.211426
836,-0.674316,-0.611816,0.132324,-49.133301,14.953613,0.244141
837,-0.720703,-0.605957,0.206543,-1.831055,12.084961,-3.234863
838,-0.756348,-0.658203,0.125977,16.540527,6.591797,-2.380371
839,-0.764648,-0.705078,0.016113,35.278320,5.798340,-2.624512
840,-0.574219,-0.760742,-0.029785,86.059570,-6.347656,-4.882812
841,-0.191895,-1.047363,0.486328,29.235840,-78.308105,12.756348
842,-0.113281,-1.501465,-0.913086,-131.347656,-128.417969,15.625000
843,-0.381348,-0.728027,-1.224121,-185.180664,-55.358887,41.564941
844,-0.476562,-0.424316,-0.909180,-182.556152,-20.019531,54.199219
845,-0.477539,-0.289062,-0.585938,-194.824219,8.850098,61.157227
846,-0.483887,-0.341309,-0.320801,-213.012695,29.602051,54.687500
847,-0.270508,-0.284668,-0.130371,-221.679688,50.415039,24.230957
848,-0.218262,-0.243164,-0.076660,-198.059082,48.461914,17.883301
849,-0.275879,-0.297852,-0.084473,-131.591797,40.893555,0.610352
850,-0.304199,-0.325684,-0.094727,-93.811035,36.865234,-9.033203
851,-0.309570,-0.359375,-0.127930,-56.823730,29.296875,-20.629883
852,-0.286621,-0.313965,-0.271484,5.310059,6.713867,-43.334961
853,-0.300293,-0.220215,-0.354980,32.775879,-7.568359,-53.161621
854,-0.363770,-0.174805,-0.468262,63.232422,-20.874023,-60.424805
855,-0.480469,-0.201660,-0.511230,125.732422,-47.485352,-71.350098
856,-0.521484,-0.304688,-0.493652,142.944336,-62.683105,-70.190430
857,-0.611816,-0.476074,-0.543945,142.211914,-74.584961,-66.772461
858,-0.632812,-0.966797,-1.130371,74.096680,-89.721680,-56.945801
859,-0.634277,-1.776855,-1.941895,40.771484,-49.804688,-50.476074
860,-0.718750,-2.794922,-2.126953,-65.063477,106.872559,-72.204590
861,-0.820801,-0.541992,0.232910,-70.617676,43.212891,-32.348633
862,-1.048340,-0.106445,0.174316,-85.266113,-4.272461,0.732422
863,-1.066406,-0.474609,-0.257812,-61.157227,-55.236816,31.433105
864,-0.843750,-0.701172,-0.613770,-42.907715,-61.950684,30.761719
865,-0.866211,-0.862793,-0.801270,-37.170410,-39.062500,27.221680
866,-0.880371,-1.266602,-0.580566,-105.712891,6.835938,31.799316
867,-0.857422,-0.982910,-0.287598,-49.743652,-9.033203,50.598145
868,-0.712891,-0.878906,-0.038574,55.603027,-7.385254,34.240723
869,-0.677734,-0.715820,-0.059082,67.993164,2.441406,14.953613
870,-0.627930,-0.608887,-0.045410,69.702148,8.850098,0.305176
871,-0.583008,-0.678223,-0.079590,50.354004,14.038086,-16.052246
872,-0.618164,-0.821777,-0.161133,68.420410,10.620117,-29.846191
873,-0.631836,-0.889648,-0.189453,129.638672,0.122070,-53.405762
874,-0.567871,-0.843750,-0.156738,195.983887,-9.887695,-76.293945
875,-0.466309,-0.833984,-0.097656,264.709473,-8.056641,-88.195801
876,-0.487793,-0.985840,-0.017090,259.033203,0.732422,-84.777832
877,-0.459473,-1.140625,0.099121,225.708008,4.821777,-74.035645
878,-0.426270,-1.307617,0.220215,178.527832,2.136230,-55.175781
879,-0.370117,-1.299316,0.334473,76.171875,-22.216797,-17.639160
880,-0.422363,-1.263672,0.254883,41.442871,-40.893555,-7.324219
881,-0.457520,-1.007324,-0.234863,37.292480,-64.758301,-33.508301
882,-0.445312,-0.791504,-0.448730,61.767578,-61.096191,-44.738770
883,-0.454102,-0.596191,-0.717285,97.351074,-49.255371,-49.621582
884,-0.440430,-0.304688,-1.132812,148.742676,-23.193359,-50.292969
885,-0.430176,-0.130371,-0.619629,162.353516,44.006348,-47.790527
886,-0.324707,-0.200195,-0.432617,115.234375,72.387695,-35.949707
887,-0.235352,-0.367676,-0.287109,52.734375,103.881836,4.150391
888,-0.264160,-0.414062,-0.208496,39.428711,106.140137,19.958496
889,-0.314453,-0.485840,-0.143066,32.226562,99.853516,31.372070
890,-0.430176,-0.623535,-0.023438,11.779785,79.772949,47.546387
891,-0.499512,-0.722656,0.041016,-5.981445,65.246582,53.039551
892,-0.525391,-0.811035,0.076660,-24.108887,44.616699,54.626465
893,-0.426270,-0.948730,-0.023438,-38.146973,-3.417969,55.603027
894,-0.353516,-1.046875,-0.134277,-33.874512,-17.700195,54.321289
895,-0.276855,-1.140625,-0.238281,-26.855469,-20.629883,50.109863
896,-0.213867,-1.289551,-0.396973,-1.770020,-9.155273,41.870117
897,-0.265137,-1.361816,-0.516113,11.962891,7.812500,35.034180
898,-0.395996,-1.491699,-0.645508,26.184082,32.043457,17.333984
899,-0.465332,-1.380859,-0.862305,57.006836,101.928711,-27.221680
900,-0.431641,-1.226074,-0.808105,64.270020,144.348145,-34.973145
901,-0.366211,-0.959473,-0.383301,57.617188,163.818359,-28.198242
902,-0.419434,-0.875488,0.453125,-32.958984,94.421387,35.461426
903,-0.630371,-1.031738,0.550781,-93.566895,34.851074,61.950684
904,-0.867188,-1.201660,0.498047,-143.981934,-16.540527,74.707031
905,-1.066406,-1.371582,0.441895,-177.429199,-60.180664,68.298340
906,-1.158203,-1.274902,0.248535,-192.626953,-123.291016,14.953613
907,-1.060547,-1.028809,-0.040527,-186.645508,-114.624023,4.577637
908,-0.971191,-0.924316,-0.229004,-164.733887,-78.735352,-0.427246
909,-0.711914,-0.623535,-0.050781,-89.355469,-15.502930,-8.056641
910,-0.671387,-0.554688,0.022949,-52.734375,0.732422,-9.582520
911,-0.698242,-0.567383,0.071289,-20.996094,11.047363,-14.404297
912,-0.756348,-0.743652,0.045410,27.221680,19.958496,-16.357422
913,-0.736816,-0.795898,-0.002441,50.170898,19.165039,-12.573242
914,-0.646484,-0.775391,-0.038086,70.739746,15.075684,-11.535645
915,-0.249023,-0.843750,0.164551,74.218750,-26.062012,-5.554199
916,-0.076172,-1.160645,-0.057617,-45.349121,-104.309082,16.540527
917,-0.152832,-1.209473,-1.095703,-144.592285,-113.098145,24.841309
918,-0.419434,-0.529297,-0.813477,-196.838379,-38.940430,54.931641
919,-0.433105,-0.366211,-0.565918,-209.228516,-12.695312,63.659668
920,-0.421875,-0.297852,-0.357422,-219.909668,0.366211,68.359375
921,-0.407715,-0.319336,-0.184570,-231.567383,8.422852,63.110352
922,-0.223633,-0.208008,-0.007324,-257.141113,27.343750,23.376465
923,-0.175781,-0.226074,-0.045898,-235.351562,33.996582,12.695312
924,-0.256348,-0.313965,-0.023438,-191.101074,29.724121,1.953125
925,-0.302246,-0.349609,0.007812,-144.775391,19.897461,-11.962891
926,-0.293457,-0.375977,-0.145020,-56.945801,-2.990723,-39.916992
927,-0.329102,-0.365723,-0.256348,-13.366699,-11.596680,-53.955078
928,-0.402832,-0.214355,-0.455078,61.401367,-38.452148,-78.918457
929,-0.452637,-0.193848,-0.590820,91.064453,-52.795410,-85.266113
930,-0.479980,-0.239258,-0.679688,116.699219,-62.744141,-87.707520
931,-0.524414,-0.368652,-0.674805,133.972168,-68.176270,-83.618164
932,-0.692871,-0.802246,-0.855957,124.084473,-84.472656,-80.261230
933,-0.656250,-1.156738,-1.345215,74.829102,-80.566406,-80.261230
934,-0.846680,-2.027832,-1.459473,-61.584473,57.373047,-70.800781
935,-0.993164,-0.918457,0.135254,-64.636230,32.043457,-32.897949
936,-1.081543,-0.321777,0.356934,-98.571777,5.371094,-7.690430
937,-1.068359,-0.157715,0.015137,-96.191406,8.972168,9.155273
938,-0.918945,-0.341309,0.061523,-28.991699,-25.634766,35.522461
939,-0.827148,-0.520508,-0.251465,-13.122559,-38.574219,29.174805
940,-0.948242,-0.788086,-0.547363,-4.516602,-31.250000,17.944336
941,-1.037598,-1.589355,-0.977051,-60.607910,-13.183594,28.930664
942,-0.808594,-1.078125,-0.182617,35.461426,-2.136230,36.254883
943,-0.708984,-0.955078,-0.113281,70.800781,-10.986328,27.160645
944,-0.673828,-0.763184,-0.127441,83.496094,-8.483887,17.456055
945,-0.613770,-0.669922,-0.233887,66.101074,28.320312,-9.643555
946,-0.572754,-0.748047,-0.250977,64.086914,53.344727,-26.062012
947,-0.537598,-0.837402,-0.196289,87.036133,66.833496,-45.227051
948,-0.496582,-0.820312,-0.120117,133.728027,65.124512,-62.805176
949,-0.464355,-0.918457,0.013672,229.370117,35.217285,-78.002930
950,-0.451172,-0.997070,0.080078,258.666992,16.723633,-80.932617
951,-0.443359,-1.096191,0.131836,258.605957,4.455566,-73.547363
952,-0.360352,-1.390137,0.202148,178.588867,8.850098,-39.001465
953,-0.344238,-1.416016,0.247070,131.652832,10.681152,-19.470215
954,-0.315918,-1.371094,0.281738,86.059570,0.366211,-8.422852
955,-0.275879,-1.173828,0.079590,57.067871,-15.258789,-11.413574
956,-0.277344,-0.823730,-0.413086,77.209473,-23.315430,-30.334473
957,-0.324219,-0.699707,-0.628418,114.318848,-15.075684,-40.161133
958,-0.448730,-0.203125,-0.943848,209.106445,46.752930,-50.231934
959,-0.457031,-0.081543,-0.479980,201.232910,68.725586,-44.738770
960,-0.417969,-0.083984,-0.197754,138.610840,76.354980,-30.151367
961,-0.395996,-0.268555,-0.135254,12.939453,78.430176,3.479004
962,-0.403809,-0.366211,-0.200684,-14.770508,78.125000,13.977051
963,-0.402832,-0.425293,-0.199707,-27.099609,77.392578,22.033691
964,-0.405273,-0.495605,-0.166016,-33.996582,73.852539,30.456543
965,-0.403809,-0.644531,-0.037598,-41.809082,50.903320,44.250488
966,-0.388184,-0.727539,-0.016113,-46.691895,32.958984,49.438477
967,-0.383789,-0.833008,-0.013672,-48.706055,15.075684,53.222656
968,-0.332520,-1.115234,-0.192383,-38.940430,-8.850098,49.072266
969,-0.307129,-1.257324,-0.325684,-23.742676,-6.164551,43.029785
970,-0.300293,-1.400391,-0.459473,-0.732422,3.967285,34.179688
971,-0.346191,-1.514648,-0.626465,47.302246,48.889160,9.643555
972,-0.406738,-1.520996,-0.662109,55.114746,81.115723,-5.676270
973,-0.365723,-1.400879,-0.693848,58.898926,112.182617,-22.521973
974,-0.327148,-0.680176,-0.360840,68.420410,119.567871,-5.554199
975,-0.459473,-0.470215,-0.055664,72.082520,82.519531,33.447266
976,-0.751953,-0.533691,0.200195,50.048828,33.813477,67.871094
977,-1.084473,-0.992676,0.417480,-97.961426,-11.840820,64.086914
978,-0.936035,-1.102539,0.284180,-172.058105,-22.094727,56.640625
979,-0.742676,-1.243164,0.196777,-211.242676,-34.545898,60.791016
980,-0.630859,-1.479492,0.110352,-217.651367,-51.696777,57.922363
981,-0.483398,-1.399902,-0.410156,-135.375977,-60.058594,34.606934
982,-0.526855,-1.251953,-0.528809,-80.200195,-24.658203,36.865234
983,-0.585449,-0.963867,-0.017578,-19.836426,26.733398,16.967773
984,-0.629395,-0.936035,0.157227,-23.803711,32.592773,4.821777
985,-0.636719,-0.972656,0.174805,-29.296875,30.639648,-5.310059
986,-0.667480,-1.002930,0.139160,-24.597168,25.390625,-9.216309
987,-0.746582,-0.887695,0.099121,4.943848,10.742188,-4.699707
988,-0.808105,-0.804688,0.096680,22.216797,8.544922,2.197266
989,-0.743652,-0.617676,0.030273,48.217773,-4.699707,-7.507324
990,-0.435547,-0.621582,0.247070,43.640137,-31.677246,-6.103516
991,-0.109863,-1.007812,0.379395,-68.908691,-99.914551,9.216309
992,-0.144043,-1.294922,-0.842285,-234.680176,-123.107910,10.803223
993,-0.324707,-0.541504,-0.958984,-285.522461,-41.870117,46.264648
994,-0.411133,-0.329590,-0.736328,-251.708984,-21.728516,65.124512
995,-0.470215,-0.270996,-0.468750,-231.201172,-7.873535,70.495605
996,-0.405273,-0.269531,-0.261230,-224.182129,5.493164,59.570312
997,-0.151367,-0.140137,-0.090820,-212.341309,28.991699,27.648926
998,-0.144043,-0.158691,-0.110840,-183.593750,36.987305,19.531250
999,-0.242188,-0.240723,-0.140137,-110.290527,49.011230,1.586914
1000,-0.282715,-0.260254,-0.133301,-82.275391,51.025391,-7.385254
1001,-0.325684,-0.297363,-0.159180,-56.884766,44.921875,-18.554688
1002,-0.437012,-0.253906,-0.247070,2.380371,10.559082,-39.245605
1003,-0.472656,-0.207520,-0.325684,33.935547,-8.666992,-50.109863
1004,-0.512695,-0.166992,-0.415527,67.749023,-25.695801,-56.701660
1005,-0.651367,-0.292480,-0.479004,126.098633,-64.575195,-64.819336
1006,-0.656738,-0.452637,-0.610840,137.817383,-81.787109,-55.664062
1007,-0.659668,-0.704102,-0.875488,128.051758,-95.214844,-46.142578
1008,-0.548828,-1.989258,-2.374512,64.758301,-6.896973,-47.485352
1009,-0.533203,-2.078613,-1.746094,19.897461,118.652344,-76.721191
1010,-0.613770,-1.264160,-0.153320,11.169434,111.389160,-60.852051
1011,-0.802246,-0.231445,0.012695,-57.800293,-28.198242,17.883301
1012,-0.894043,-0.179199,-0.158203,-75.378418,-58.959961,31.372070
1013,-0.850098,-0.446777,-0.502441,-97.167969,-61.157227,28.991699
1014,-0.814941,-1.176758,-1.162598,-78.430176,-7.141113,14.709473
1015,-0.885742,-1.593750,-1.315918,-127.258301,38.208008,1.708984
1016,-0.795410,-1.203613,-0.316406,-114.013672,14.526367,16.235352
1017,-0.933105,-1.014160,-0.126953,-1.831055,-24.536133,43.457031
1018,-0.812012,-0.959961,-0.054688,47.607422,-36.804199,34.790039
1019,-0.685547,-0.817871,-0.034180,56.396484,-32.409668,15.258789
1020,-0.559082,-0.611816,-0.156250,68.176270,-14.465332,-25.695801
1021,-0.589355,-0.640625,-0.203613,88.195801,-13.244629,-38.085938
1022,-0.574707,-0.687500,-0.291504,180.847168,-12.390137,-58.959961
1023,-0.617188,-0.738281,-0.303223,229.431152,-2.807617,-68.237305
1024,-0.640137,-0.801270,-0.267578,267.517090,7.446289,-78.369141
1025,-0.632324,-0.842285,-0.223145,283.996582,14.282227,-83.740234
1026,-0.599609,-0.997559,-0.290527,259.643555,38.757324,-69.152832
1027,-0.565430,-1.080078,-0.207031,224.365234,61.401367,-47.241211
1028,-0.365723,-1.046387,0.121094,117.675781,72.692871,8.789062
1029,-0.360840,-1.007812,0.260742,82.946777,44.616699,20.019531
1030,-0.361816,-1.036621,0.352051,59.692383,-0.305176,10.742188
1031,-0.342285,-1.027344,0.373047,46.752930,-52.673340,-14.282227
1032,-0.365723,-0.809570,-0.188477,6.591797,-91.430664,-30.883789
1033,-0.366211,-0.733398,-0.447754,4.943848,-64.758301,-33.447266
1034,-0.342773,-0.613770,-0.613770,33.081055,-39.550781,-35.705566
1035,-0.293457,-0.468262,-0.778320,129.699707,17.089844,-31.188965
1036,-0.261230,-0.391602,-0.667969,152.404785,52.978516,-28.991699
1037,-0.245605,-0.348633,-0.451660,144.470215,83.801270,-19.287109
1038,-0.369141,-0.532715,-0.235352,72.814941,104.003906,8.850098
1039,-0.414062,-0.667480,-0.245117,36.193848,97.106934,17.028809
1040,-0.374023,-0.770996,-0.295410,9.704590,82.641602,25.390625
1041,-0.295410,-0.985352,-0.404297,-21.545410,52.124023,41.625977
1042,-0.234863,-1.055664,-0.403320,-31.372070,38.574219,41.442871
1043,-0.166992,-1.052734,-0.236328,-43.395996,18.798828,35.827637
1044,-0.274414,-1.260254,-0.003906,-96.801758,-44.006348,13.427734
1045,-0.337891,-1.315918,-0.030762,-122.924805,-73.608398,-7.385254
1046,-0.364258,-1.238770,-0.248047,-138.366699,-83.740234,-19.714355
1047,-0.580078,-0.960938,-0.683105,-112.487793,-29.418945,-5.798340
1048,-0.672363,-0.954102,-0.766602,-78.918457,23.254395,-6.164551
1049,-0.627441,-0.917969,-0.701660,-45.959473,75.805664,-8.300781
1050,-0.544922,-0.970703,-0.040527,-36.682129,121.643066,14.892578
1051,-0.611328,-1.040527,0.210938,-75.012207,107.788086,33.813477
1052,-0.706055,-1.118652,0.239746,-109.313965,77.941895,51.025391
1053,-0.889160,-1.284180,0.078125,-95.642090,0.793457,53.222656
1054,-0.933594,-1.204590,0.012207,-63.110352,-27.038574,36.437988
1055,-0.921875,-1.054199,0.046387,-39.672852,-39.001465,20.812988
1056,-0.871094,-0.819336,0.241699,-39.306641,-38.818359,5.737305
1057,-0.834473,-0.667480,0.294434,-43.273926,-38.940430,6.408691
1058,-0.856445,-0.626953,0.291992,-46.386719,-35.217285,7.141113
1059,-0.659668,-0.648438,0.318359,-37.414551,-36.865234,-14.282227
1060,-0.645996,-0.731445,0.129883,-17.456055,-40.710449,-17.089844
1061,-0.658203,-0.712891,-0.057617,3.479004,-33.264160,-17.333984
1062,-0.689453,-0.750977,-0.270996,23.498535,-15.380859,-13.732910
1063,-0.444824,-0.814453,-0.249023,79.833984,14.831543,-25.939941
1064,-0.173828,-0.841309,0.203125,90.270996,-14.892578,-25.207520
1065,0.112793,-1.190918,0.488770,-38.635254,-109.619141,1.586914
1066,-0.127441,-0.892578,-1.523926,-249.023438,-127.563477,14.770508
1067,-0.282715,-0.385742,-1.198242,-224.182129,-89.782715,46.264648
1068,-0.392090,-0.243652,-0.838867,-204.467773,-59.082031,72.021484
1069,-0.337402,-0.341309,-0.350098,-199.829102,-5.615234,55.908203
1070,-0.301758,-0.175781,-0.135742,-212.646484,22.399902,36.010742
1071,-0.176758,-0.083496,-0.184570,-218.078613,46.142578,22.094727
1072,-0.202148,-0.171875,-0.187500,-154.235840,79.589844,19.958496
1073,-0.266602,-0.259766,-0.121094,-119.750977,81.604004,15.319824
1074,-0.375000,-0.409668,-0.105957,-55.419922,40.466309,-6.408691
1075,-0.398438,-0.469727,-0.238281,-15.686035,12.756348,-17.272949
1076,-0.419434,-0.458008,-0.295898,33.874512,-17.028809,-31.372070
1077,-0.445312,-0.302734,-0.218750,71.594238,-52.490234,-41.992188
1078,-0.529785,-0.274414,-0.300781,119.934082,-115.295410,-53.771973
1079,-0.489746,-0.465820,-0.612305,140.319824,-132.019043,-56.152344
1080,-0.595703,-0.360352,-0.895020,144.775391,-136.535645,-44.982910
1081,-0.776855,-1.133789,-1.837891,58.471680,-62.744141,-29.235840
1082,-0.799805,-1.953125,-2.385742,-7.141113,31.982422,-49.255371
1083,-0.935547,-1.867676,-2.425293,-69.580078,163.513184,-73.913574
1084,-0.935547,-1.101074,-0.676758,-0.061035,190.246582,-60.485840
1085,-0.921875,-0.242188,1.173340,-55.297852,-8.056641,-20.874023
1086,-1.062500,-0.383789,0.316895,-62.438965,-104.248047,4.089355
1087,-0.938965,-0.424316,-0.608398,-30.944824,-92.224121,-8.728027
1088,-0.691895,-0.426758,-0.760254,-30.334473,-28.930664,-19.958496
1089,-0.851074,-0.788574,-0.929688,-99.426270,75.805664,20.935059
1090,-0.860840,-1.005859,-0.958984,-140.441895,66.406250,57.006836
1091,-0.676270,-0.298340,-0.726074,18.371582,54.931641,165.588379
1092,-0.919434,-0.445801,-0.714844,82.275391,84.289551,167.358398
1093,-0.678711,-0.040527,-0.435547,175.476074,140.441895,115.783691
1094,-0.629395,0.050293,-0.519043,245.239258,141.479492,104.980469
1095,-0.714355,0.061035,-1.138672,382.568359,167.663574,91.552734
1096,-1.141602,-1.026855,-0.389160,524.475098,181.030273,13.366699
1097,-0.882812,-1.020508,1.358887,535.583496,34.484863,-91.552734
1098,-0.697266,-1.217773,2.194336,323.669434,-24.841309,1.098633
1099,-0.759766,-1.508301,2.271973,-153.381348,-157.165527,89.355469
1100,-0.791016,-1.355957,0.704102,-196.472168,-219.299316,46.508789
1101,-0.662598,-1.140625,0.266602,-173.034668,-245.117188,14.404297
1102,-0.487305,-1.058105,0.341309,-135.437012,-264.343262,-1.342773
1103,-0.231445,-1.065918,-0.255859,-20.568848,-281.921387,-2.380371
1104,-0.150879,-1.003906,-0.524902,26.123047,-226.806641,8.422852
1105,0.026855,-0.353516,-0.287109,13.732910,-51.330566,3.234863
1106,-0.208008,-0.262207,-0.216309,3.967285,-9.338379,36.926270
1107,-0.641113,-0.642090,-0.485840,9.948730,32.348633,34.973145
1108,-0.849609,-0.725586,-0.858887,60.913086,136.108398,-20.324707
1109,-0.751465,-0.590332,-1.101074,125.244141,180.358887,-17.211914
1110,-0.711914,-0.556152,-1.219727,227.416992,218.078613,-4.638672
1111,-0.669434,-0.382812,-0.860352,323.974609,217.773438,15.869141
1112,-0.424316,-0.435547,-0.680664,236.755371,110.168457,-0.976562
1113,-0.192871,-0.556152,-0.789551,163.635254,135.131836,-7.019043
1114,-0.010254,-0.781738,-0.328613,53.710938,165.161133,18.737793
1115,-0.067383,-0.910156,0.067383,11.108398,132.507324,33.264160
1116,-0.206543,-1.114258,0.345703,-16.296387,67.199707,36.499023
1117,-0.317871,-0.872070,0.189453,-56.091309,-55.480957,39.123535
1118,-0.478027,-0.885254,0.013184,-69.458008,-78.674316,36.437988
1119,-0.662109,-1.014648,-0.244141,-72.387695,-80.078125,28.137207
1120,-0.862793,-1.165527,-0.712402,-48.583984,-10.498047,-14.099121
1121,-0.673340,-1.038086,-0.933594,-8.850098,39.062500,-10.131836
1122,-0.578613,-1.115234,-0.982910,61.645508,89.782715,-8.544922
1123,-0.468750,-1.279785,-0.015137,140.747070,136.840820,-30.090332
1124,-0.442383,-1.251465,0.514160,96.740723,108.581543,-39.367676
1125,-0.400879,-1.078125,0.660645,24.841309,53.894043,-36.743164
1126,-0.580078,-1.036621,0.410156,-35.522461,9.399414,-28.503418
1127,-0.822266,-0.820801,0.561035,-90.393066,-63.903809,33.874512
1128,-1.486816,-1.291016,1.128418,-117.492676,-149.353027,38.757324
1129,-1.526855,-0.903320,0.499023,-233.520508,-277.099609,-36.010742
1130,-1.123535,-0.609863,-0.145508,-276.062012,-240.356445,-19.714355
1131,-0.960938,-0.736816,-0.508301,-268.859863,-176.025391,-13.793945
1132,-0.647461,-0.681152,-0.520020,-138.305664,-50.781250,-61.584473
1133,-0.595215,-0.510742,-0.202637,-63.781738,-29.357910,-58.227539
1134,-0.723633,-0.536133,0.041504,-16.113281,-24.108887,-53.649902
1135,-0.548340,-0.278320,0.213379,14.038086,-44.738770,-37.353516
1136,-0.706055,-0.473633,0.247070,14.404297,-51.940918,-16.052246
1137,-0.692871,-0.960938,-0.080566,-121.582031,-116.333008,20.446777
1138,-0.316406,-0.786133,-1.555664,-228.881836,-23.498535,22.399902
1139,-0.386230,-0.241699,-1.158691,-166.442871,17.517090,67.321777
1140,-0.674316,-0.286621,-0.535156,-166.381836,26.733398,85.998535
1141,-0.605469,-0.413086,-0.462891,-208.801270,51.269531,60.485840
1142,-0.512695,-0.395020,-0.400879,-217.529297,71.533203,56.030273
1143,-0.448730,-0.524902,-0.157227,-211.303711,80.322266,40.710449
1144,-0.413574,-0.638184,-0.068359,-190.429688,66.772461,21.423340
1145,-0.349121,-0.675781,-0.021973,-153.137207,41.992188,-0.488281
1146,-0.070801,-0.387695,0.099121,-84.472656,-2.685547,-12.512207
1147,-0.047363,-0.222168,0.056152,-79.589844,-10.253906,1.892090
1148,-0.171387,-0.268555,-0.072266,-84.228516,-2.258301,7.080078
1149,-0.300781,-0.206543,-0.501953,-37.048340,37.109375,-15.747070
1150,-0.329102,-0.107910,-0.569824,-0.854492,52.734375,-24.963379
1151,-0.377441,-0.041504,-0.606445,36.010742,56.396484,-33.386230
1152,-0.489746,0.019043,-0.676758,117.919922,33.569336,-49.743652
1153,-0.545410,-0.088379,-0.586914,153.808594,11.047363,-56.335449
1154,-0.536621,-0.226562,-0.579590,174.072266,-5.554199,-64.208984
1155,-0.576172,-0.435547,-0.617676,177.246094,-13.183594,-73.059082
1156,-0.614258,-1.027832,-1.075195,137.634277,-43.212891,-91.003418
1157,-0.696289,-1.987793,-1.764160,57.678223,-18.920898,-84.838867
1158,-0.613770,-2.187012,-2.095703,-112.365723,63.232422,-61.279297
1159,-0.994629,-0.807617,0.162109,2.136230,33.691406,34.179688
1160,-0.937500,-0.406738,0.770020,-39.367676,-14.343262,37.475586
1161,-0.962891,-0.331055,0.320801,-89.355469,-46.081543,29.052734
1162,-0.530273,-0.342285,-0.450684,-30.090332,-39.855957,-9.582520
1163,-0.533203,-0.505859,-0.564453,29.296875,-32.409668,-20.568848
1164,-0.731445,-0.725098,-0.642090,46.752930,-12.451172,-22.094727
1165,-0.907715,-1.664062,-0.734863,-8.361816,-27.404785,20.935059
1166,-0.826660,-1.706055,-0.782227,64.086914,-28.198242,-1.647949
1167,-0.686523,-0.976074,-0.177246,76.171875,29.785156,-23.986816
1168,-0.740723,-0.800293,-0.199219,32.775879,61.523438,-27.587891
1169,-0.781250,-0.686523,-0.243164,0.610352,97.351074,-37.841797
1170,-0.789062,-0.660156,-0.242676,-10.986328,124.694824,-49.743652
1171,-0.724609,-0.811523,-0.249512,41.198730,116.943359,-70.007324
1172,-0.582031,-0.869141,-0.287598,90.332031,92.407227,-71.777344
1173,-0.429688,-0.908203,-0.320801,126.892090,77.819824,-70.983887
1174,-0.185547,-1.041992,-0.369629,156.250000,73.303223,-67.504883
1175,-0.126465,-1.060059,-0.304688,155.395508,72.265625,-57.067871
1176,-0.039551,-1.062988,-0.219238,131.591797,52.368164,-9.765625
1177,-0.089355,-1.130859,-0.284180,116.760254,40.832520,0.366211
1178,-0.165527,-0.985352,-0.376465,101.440430,42.297363,0.915527
1179,-0.273438,-0.835938,-0.461426,92.468262,54.626465,1.098633
1180,-0.344727,-0.597656,-0.416992,110.473633,67.626953,-2.807617
1181,-0.310547,-0.551758,-0.305664,131.103516,57.067871,-11.901855
1182,-0.193848,-0.335938,-0.028320,152.648926,3.784180,-18.798828
1183,-0.260742,-0.334473,-0.053223,145.141602,-21.118164,-5.676270
1184,-0.392578,-0.439453,-0.116699,129.577637,-28.625488,-4.028320
1185,-0.433594,-0.467773,-0.146973,83.312988,-15.319824,-14.770508
1186,-0.347656,-0.476074,-0.105469,52.856445,-7.324219,-13.732910
1187,-0.292969,-0.474609,-0.138672,25.207520,-0.305176,-5.004883
1188,-0.333008,-0.573730,-0.154785,5.004883,1.220703,3.967285
1189,-0.325195,-0.593750,-0.185059,-16.906738,-11.779785,16.357422
1190,-0.301270,-0.703613,-0.281250,-24.536133,-13.793945,21.911621
1191,-0.161133,-0.817871,-0.416992,-26.672363,-11.718750,27.099609
1192,-0.075684,-0.786133,-0.471680,-8.728027,-15.808105,39.306641
1193,-0.101562,-0.968750,-0.461426,14.465332,-25.207520,46.813965
1194,-0.145996,-1.062500,-0.440430,40.710449,-41.381836,46.325684
1195,-0.206543,-1.141113,-0.486816,45.959473,-42.297363,46.020508
1196,-0.267090,-1.224121,-0.472168,51.086426,-41.198730,45.593262
1197,-0.307617,-1.276855,-0.424805,56.518555,-42.846680,44.799805
1198,-0.473633,-1.515625,-0.696289,52.673340,-16.845703,23.742676
1199,-0.458008,-1.500977,-0.697266,30.883789,28.564453,2.258301
1200,-0.494141,-1.118652,-0.458008,-9.887695,67.016602,7.141113
1201,-0.625000,-0.975586,-0.042480,-136.718750,68.054199,37.475586
1202,-0.710449,-1.047363,-0.018066,-184.753418,47.729492,54.199219
1203,-0.744141,-1.153809,-0.032227,-209.838867,22.033691,60.546875
1204,-0.714355,-1.233887,-0.134277,-215.393066,-21.057129,63.781738
1205,-0.668457,-1.245605,-0.201172,-198.974609,-31.372070,54.138184
1206,-0.578613,-1.226074,-0.262207,-173.706055,-32.714844,40.161133
1207,-0.562988,-0.958984,-0.233398,-99.609375,-25.634766,36.621094
1208,-0.633301,-0.900879,-0.255371,-63.171387,-10.864258,36.743164
1209,-0.696777,-0.854004,-0.202148,-30.517578,9.155273,29.663086
1210,-0.687012,-0.676758,0.019531,8.789062,27.954102,17.211914
1211,-0.652832,-0.693359,0.077148,15.686035,22.888184,18.249512
1212,-0.599121,-0.766113,0.051758,17.028809,15.075684,13.793945
1213,-0.386719,-0.798340,-0.035645,22.094727,3.784180,0.732422
1214,-0.302734,-0.768555,-0.067383,29.296875,-5.432129,-3.295898
1215,-0.249512,-0.700195,-0.106934,37.719727,-15.869141,-4.638672
1216,-0.108887,-0.658691,0.155273,28.991699,-34.484863,1.892090
1217,-0.104980,-0.916504,-0.198730,-193.725586,-169.982910,48.034668
1218,-0.339844,-0.908691,-1.133789,-278.869629,-161.010742,50.048828
1219,-0.371582,-0.703125,-1.436035,-286.193848,-99.731445,49.865723
1220,-0.279297,-0.296387,-0.664062,-230.651855,-25.329590,66.528320
1221,-0.256836,-0.239746,-0.371582,-214.477539,-11.535645,63.476562
1222,-0.237305,-0.243164,-0.187012,-205.932617,-4.272461,51.513672
1223,-0.283691,-0.264648,-0.059082,-186.157227,20.629883,13.183594
1224,-0.352539,-0.318848,-0.131836,-155.883789,32.226562,-7.751465
1225,-0.391602,-0.338379,-0.205078,-101.989746,33.020020,-25.817871
1226,-0.425293,-0.216797,-0.291992,26.611328,-10.070801,-50.537109
1227,-0.431641,-0.125000,-0.348633,72.814941,-41.625977,-60.180664
1228,-0.528320,-0.219727,-0.573730,144.165039,-88.989258,-82.702637
1229,-0.590820,-0.277344,-0.633301,163.757324,-98.144531,-87.280273
1230,-0.693848,-0.472168,-0.787598,164.611816,-99.609375,-87.829590
1231,-0.690430,-0.669434,-1.072754,158.264160,-101.318359,-89.233398
1232,-0.547852,-0.892578,-1.632812,146.667480,-91.247559,-73.242188
1233,-0.511230,-2.061035,-1.841797,-4.882812,129.943848,-66.711426
1234,-0.594238,-1.246582,-0.169922,0.427246,114.868164,-37.597656
1235,-1.104980,-0.260254,0.518066,-48.034668,-44.006348,32.714844
1236,-1.336426,-0.255371,0.085449,-76.599121,-71.044922,21.301270
1237,-0.756348,-0.345215,-0.369629,-88.500977,-62.866211,0.122070
1238,-0.778809,-0.932129,-0.903320,-47.363281,-26.489258,-9.948730
1239,-1.048340,-1.524902,-1.013184,-102.416992,1.831055,7.690430
1240,-0.875488,-1.824707,-0.730469,-38.085938,-24.719238,28.015137
1241,-0.826172,-1.391113,0.175781,28.381348,-36.804199,37.414551
1242,-0.916992,-1.212402,-0.576660,-57.861328,-113.159180,27.343750
1243,-0.706055,-0.870605,-1.000977,20.019531,-50.231934,-16.479492
1244,-0.680664,-0.572266,-0.536621,38.940430,45.593262,-50.720215
1245,-0.632324,-0.627930,-0.412109,54.565430,63.903809,-69.641113
1246,-0.572754,-0.663086,-0.298828,98.449707,66.101074,-80.139160
1247,-0.523926,-0.697266,-0.171387,146.728516,62.194824,-85.693359
1248,-0.467773,-0.673828,0.042480,217.712402,38.391113,-87.097168
1249,-0.488770,-0.743652,-0.034668,234.313965,32.165527,-73.547363
1250,-0.467773,-0.810059,-0.102539,234.619141,40.161133,-59.387207
1251,-0.442383,-1.023926,-0.191406,190.124512,76.232910,-19.897461
1252,-0.386719,-1.126465,-0.202148,156.982422,90.637207,-4.882812
1253,-0.319824,-1.135254,-0.134766,124.450684,90.820312,2.807617
1254,-0.215332,-0.976562,-0.195801,95.581055,47.119141,3.967285
1255,-0.170898,-0.948730,-0.144531,96.740723,20.141602,-5.859375
1256,-0.150879,-0.741699,-0.024414,94.909668,-17.028809,-17.517090
1257,-0.252441,-0.558594,-0.293457,84.838867,-49.499512,-18.859863
1258,-0.288574,-0.462402,-0.366211,78.735352,-32.592773,-17.944336
1259,-0.308594,-0.439941,-0.460938,63.903809,25.512695,-14.160156
1260,-0.292969,-0.439453,-0.486328,61.157227,58.227539,-14.465332
1261,-0.296875,-0.469727,-0.472168,64.758301,84.716797,-11.047363
1262,-0.330078,-0.556641,-0.435547,78.186035,110.351562,-4.150391
1263,-0.399414,-0.669922,-0.309570,80.383301,111.145020,1.647949
1264,-0.450195,-0.720703,-0.190430,70.312500,102.844238,7.507324
1265,-0.472168,-0.730957,-0.062988,53.894043,78.186035,14.892578
1266,-0.442383,-0.716309,0.032227,7.446289,-1.953125,34.301758
1267,-0.387207,-0.784180,-0.088867,-21.179199,-33.142090,45.166016
1268,-0.344727,-0.910645,-0.273438,-42.297363,-47.607422,51.574707
1269,-0.305176,-1.229004,-0.581055,-54.138184,-40.100098,55.480957
1270,-0.254395,-1.380859,-0.729004,-44.799805,-20.751953,47.912598
1271,-0.179199,-1.451172,-0.715332,-36.560059,8.056641,37.719727
1272,-0.285156,-1.472656,-0.779785,-30.883789,67.810059,4.028320
1273,-0.355469,-1.169922,-0.637207,-42.053223,95.886230,-3.906250
1274,-0.452148,-0.884277,-0.345215,-65.795898,101.196289,-2.136230
1275,-0.729492,-0.843262,0.004395,-129.516602,50.231934,33.264160
1276,-0.836426,-1.024902,0.077637,-174.743652,24.475098,48.645020
1277,-0.890625,-1.209961,0.041992,-212.341309,-0.793457,58.166504
1278,-0.873047,-1.344238,-0.033691,-230.957031,-25.390625,59.814453
1279,-0.769531,-1.457520,-0.167480,-204.040527,-62.622070,48.156738
1280,-0.623047,-1.388672,-0.102539,-169.616699,-76.904297,32.897949
1281,-0.566406,-1.188965,-0.005371,-126.647949,-94.970703,28.991699
1282,-0.842285,-1.018066,-0.424316,-64.270020,-40.161133,33.447266
1283,-0.904297,-0.858887,-0.259277,-29.846191,11.657715,26.123047
1284,-0.854004,-0.627930,-0.007324,34.118652,71.533203,7.995605
1285,-0.811035,-0.574707,0.113770,56.640625,82.458496,-6.774902
1286,-0.771973,-0.584473,0.230469,75.378418,68.908691,-18.127441
1287,-0.647949,-0.572754,0.247070,87.829590,39.123535,-24.597168
1288,-0.348633,-0.756348,0.000977,76.782227,-4.699707,-26.550293
1289,-0.174805,-0.752441,-0.143066,62.255859,-0.244141,-35.461426
1290,0.136230,-0.614258,0.202148,8.972168,-8.239746,-5.615234
1291,-0.008301,-0.924805,0.182129,-161.926270,-104.919434,38.452148
1292,-0.384277,-1.046875,-1.079102,-292.480469,-121.704102,37.658691
1293,-0.367188,-0.322754,-1.228027,-290.893555,-22.216797,57.189941
1294,-0.285645,-0.157227,-0.920410,-243.957520,3.112793,78.430176
1295,-0.269531,-0.173340,-0.652832,-209.777832,28.747559,81.542969
1296,-0.202637,-0.132812,-0.418457,-189.697266,53.161621,67.077637
1297,-0.176758,-0.120117,0.029297,-170.898438,84.533691,26.123047
1298,-0.235352,-0.176758,0.188477,-148.193359,74.707031,5.310059
1299,-0.401855,-0.346680,0.126465,-61.767578,7.751465,-29.052734
1300,-0.426270,-0.398926,-0.230469,0.732422,-16.540527,-36.193848
1301,-0.479980,-0.455566,-0.440430,61.828613,-22.644043,-45.776367
1302,-0.515625,-0.371094,-0.448730,107.055664,-33.386230,-62.072754
1303,-0.526855,-0.299805,-0.512695,152.587891,-67.687988,-85.388184
1304,-0.598145,-0.420898,-0.531738,165.222168,-80.993652,-91.674805
1305,-0.667969,-0.528320,-0.554199,170.166016,-98.937988,-91.979980
1306,-0.546875,-0.816406,-0.837891,128.723145,-155.944824,-61.035156
1307,-0.553711,-1.819824,-2.053223,4.638672,-128.417969,-27.954102
1308,-0.604980,-2.278320,-3.133301,-117.370605,20.263672,-28.747559
1309,-0.775879,-0.653320,0.072266,8.361816,35.034180,18.676758
1310,-1.158691,-0.069336,1.031250,-44.433594,-21.057129,27.709961
1311,-1.421387,1.120605,3.653809,-202.697754,15.625000,-27.465820
1312,-0.442871,-0.890137,-1.331543,-44.433594,-89.294434,-4.272461
1313,-0.689941,-0.531738,-1.634277,-63.842773,-42.236328,-8.178711
1314,-0.976074,-1.514648,-1.082520,-110.839844,-2.441406,13.610840
1315,-1.072266,-1.579102,-0.715332,212.707520,-12.634277,17.639160
1316,-1.000000,-1.166016,0.005371,156.372070,-25.268555,24.719238
1317,-0.687988,-0.580078,-0.102539,-21.911621,-8.850098,-12.939453
1318,-0.625977,-0.518555,-0.232910,-58.654785,32.958984,-29.846191
1319,-0.592773,-0.492188,-0.342773,-44.799805,77.148438,-46.264648
1320,-0.683105,-0.647949,-0.202637,86.608887,116.638184,-70.922852
1321,-0.689941,-0.729980,-0.000977,152.526855,104.980469,-87.219238
1322,-0.663086,-0.662109,0.145996,203.918457,75.561523,-92.285156
1323,-0.609863,-0.685059,0.152344,237.304688,40.893555,-84.655762
1324,-0.502930,-0.812012,0.062988,264.587402,0.427246,-69.030762
1325,-0.468750,-0.843262,-0.010254,259.826660,-5.187988,-54.504395
1326,-0.436523,-0.888184,-0.040039,235.778809,2.136230,-35.949707
1327,-0.301270,-0.994141,-0.134277,158.813477,23.864746,14.404297
1328,-0.290039,-1.042480,-0.214844,122.863770,37.536621,25.573730
1329,-0.277832,-0.984863,-0.226074,98.999023,48.767090,25.085449
1330,-0.208008,-0.664062,0.090332,57.312012,35.522461,16.174316
1331,-0.254395,-0.598145,0.291504,34.057617,1.525879,9.216309
1332,-0.411621,-0.646973,0.273926,8.728027,-49.438477,-6.347656
1333,-0.306641,-0.623535,-0.439453,27.832031,-77.148438,-23.925781
1334,-0.244141,-0.574707,-0.458496,41.320801,-57.617188,-24.047852
1335,-0.211914,-0.557617,-0.455078,40.527344,-30.761719,-23.498535
1336,-0.239746,-0.384277,-0.532715,51.940918,24.108887,-6.408691
1337,-0.292480,-0.309570,-0.531250,61.157227,47.546387,12.512207
1338,-0.429199,-0.380371,-0.515625,74.279785,69.641113,32.165527
1339,-0.476074,-0.635254,-0.111328,43.640137,72.814941,30.944824
1340,-0.413574,-0.718262,-0.171875,30.212402,51.391602,43.701172
1341,-0.391602,-0.854492,-0.190430,26.184082,25.756836,53.466797
1342,-0.345215,-0.930664,-0.190918,19.287109,2.990723,57.067871
1343,-0.270996,-1.109863,-0.275391,-16.479492,-15.014648,56.823730
1344,-0.272949,-1.242188,-0.357422,-31.616211,-15.686035,53.710938
1345,-0.308105,-1.584473,-0.650391,-34.667969,0.976562,22.521973
1346,-0.261230,-1.608398,-0.770020,-26.855469,26.428223,2.197266
1347,-0.131348,-1.382324,-0.870117,-13.305664,60.363770,-6.774902
1348,-0.188965,-1.097656,-0.902832,-2.380371,103.210449,-0.549316
1349,-0.578125,-1.030273,-0.236816,-18.432617,149.963379,9.948730
1350,-0.632324,-1.104004,0.083496,-61.462402,127.258301,25.634766
1351,-0.704102,-1.170898,0.257812,-101.562500,82.580566,43.029785
1352,-1.124512,-1.531250,0.380371,-183.837891,-30.517578,61.340332
1353,-1.248047,-1.635742,0.257324,-190.979004,-78.002930,42.053223
1354,-1.170898,-1.439453,0.203613,-172.546387,-120.178223,22.827148
1355,-1.062012,-1.074707,0.031250,-146.911621,-139.282227,23.986816
1356,-1.020020,-0.834961,-0.155273,-114.135742,-58.288574,13.488770
1357,-0.871582,-0.606934,-0.023926,-100.891113,-8.605957,5.432129
1358,-0.818848,-0.473633,0.119141,-87.524414,27.404785,2.502441
1359,-0.680664,-0.459473,0.394043,-57.128906,33.874512,-7.934570
1360,-0.604004,-0.539062,0.327637,-26.000977,7.751465,-12.512207
1361,-0.578613,-0.622559,0.174316,18.615723,-18.493652,-10.375977
1362,-0.531250,-0.696777,-0.104980,82.763672,-17.822266,-6.164551
1363,-0.475098,-0.700684,-0.185059,94.177246,1.831055,-9.277344
1364,-0.413086,-0.680664,-0.218750,99.365234,20.812988,-14.099121
1365,0.054199,-1.392578,0.015137,-171.875000,-107.727051,22.888184
1366,-0.204102,-1.355469,-1.559082,-330.993652,-99.121094,8.789062
1367,-0.174316,-0.684570,-1.360840,-359.680176,-39.184570,19.226074
1368,-0.370605,-0.421875,-0.635742,-302.978516,-26.306152,54.931641
1369,-0.330078,-0.333496,-0.424316,-264.465332,-37.475586,52.001953
1370,-0.260742,-0.261719,-0.340332,-227.416992,-40.039062,51.452637
1371,-0.204102,-0.204590,-0.195801,-194.824219,-33.996582,47.912598
1372,-0.215332,-0.091797,0.091309,-165.466309,8.300781,30.639648
1373,-0.249023,-0.158691,0.083496,-160.339355,28.930664,14.831543
1374,-0.252930,-0.331055,-0.169922,-67.871094,34.484863,-30.029297
1375,-0.312500,-0.285156,-0.261230,0.183105,16.845703,-49.377441
1376,-0.399414,-0.155762,-0.316895,49.926758,-2.990723,-62.072754
1377,-0.584473,-0.131836,-0.499023,117.675781,-46.752930,-85.083008
1378,-0.610840,-0.175293,-0.558105,151.733398,-58.532715,-92.590332
1379,-0.602051,-0.257324,-0.631348,175.109863,-65.124512,-92.163086
1380,-0.672852,-0.581055,-1.097168,153.015137,-86.914062,-77.392578
1381,-0.657227,-1.114258,-1.937012,105.590820,-59.936523,-58.593750
1382,-0.809570,-2.584961,-2.855469,-0.427246,68.237305,-69.641113
1383,-0.636230,-1.133301,0.156738,9.216309,110.229492,-18.554688
1384,-0.788086,-0.458984,0.627930,-35.827637,19.470215,21.667480
1385,-1.130371,-0.183105,0.375977,-83.801270,-26.245117,37.170410
1386,-0.798340,-0.345703,-1.742188,50.476074,-140.686035,8.728027
1387,-0.804199,-1.074707,-1.383789,-3.723145,-66.467285,9.399414
1388,-0.907715,-1.583008,-1.395508,-52.795410,16.662598,-1.281738
1389,-0.742188,-1.744629,-1.498047,16.845703,-2.380371,10.131836
1390,-1.005371,-1.075195,-0.258789,133.483887,-18.493652,44.860840
1391,-0.849609,-0.760742,-0.110840,-19.104004,-5.981445,40.039062
1392,-0.681641,-0.698242,-0.133301,-50.903320,21.362305,8.300781
1393,-0.578613,-0.552734,-0.190430,-42.114258,51.330566,-16.967773
1394,-0.591309,-0.531250,-0.099609,1.586914,71.655273,-26.611328
1395,-0.641602,-0.595703,0.074707,136.047363,61.950684,-52.490234
1396,-0.611328,-0.648926,0.024902,203.918457,47.241211,-62.377930
1397,-0.591797,-0.665039,0.013184,267.272949,37.048340,-69.458008
1398,-0.647461,-0.758789,-0.058105,343.017578,37.109375,-79.711914
1399,-0.641602,-0.804688,-0.018555,349.426270,46.997070,-73.364258
1400,-0.682129,-1.221191,0.258301,259.460449,69.580078,-32.714844
1401,-0.586914,-1.398926,0.435059,174.560547,64.208984,-20.080566
1402,-0.375488,-1.319824,0.536133,79.528809,36.987305,-16.418457
1403,-0.223145,-1.092285,0.345215,-25.695801,-24.963379,-18.371582
1404,-0.057129,-0.725586,-0.079102,-23.864746,-40.588379,-22.888184
1405,-0.040039,-0.577148,-0.137695,-11.291504,-56.457520,-23.376465
1406,-0.062988,-0.468262,-0.349121,20.629883,-69.885254,-23.742676
1407,-0.120117,-0.499512,-0.452148,34.118652,-61.035156,-23.559570
1408,-0.159668,-0.523438,-0.530762,42.236328,-40.954590,-26.428223
1409,-0.164062,-0.466797,-0.623047,49.255371,-10.375977,-23.681641
1410,-0.215332,-0.404297,-0.668945,72.082520,71.289062,5.126953
1411,-0.306152,-0.404785,-0.569824,82.580566,106.262207,22.827148
1412,-0.434082,-0.458496,-0.419434,83.862305,130.554199,39.062500
1413,-0.640137,-0.656738,0.020020,37.475586,114.807129,40.649414
1414,-0.620117,-0.743652,0.082031,13.427734,75.988770,41.870117
1415,-0.631348,-0.868652,0.080078,-5.065918,27.587891,42.419434
1416,-0.506348,-1.033691,-0.131348,-41.015625,-43.762207,39.367676
1417,-0.430664,-1.137695,-0.257324,-57.312012,-53.405762,38.330078
1418,-0.389648,-1.235840,-0.353516,-66.894531,-53.649902,35.400391
1419,-0.341797,-1.428711,-0.661621,-65.002441,-27.954102,20.324707
1420,-0.258789,-1.452148,-0.979004,-47.790527,9.765625,9.277344
1421,-0.211426,-1.404785,-1.271973,-11.962891,70.190430,2.807617
1422,-0.391113,-1.170410,-0.558105,15.625000,169.677734,-11.596680
1423,-0.399414,-1.044434,-0.044434,-22.155762,161.560059,0.915527
1424,-0.517090,-1.149902,0.233398,-74.401855,117.675781,20.507812
1425,-0.697266,-1.352539,0.244629,-119.628906,62.988281,30.761719
1426,-0.886230,-1.488770,0.105957,-157.958984,-24.719238,38.391113
1427,-0.933594,-1.452637,0.079590,-157.104492,-60.302734,37.536621
1428,-0.915527,-1.244141,-0.050293,-140.930176,-84.899902,37.841797
1429,-1.038086,-0.935059,-0.181152,-102.355957,-57.983398,32.531738
1430,-0.979492,-0.749512,-0.049316,-96.618652,-26.367188,23.681641
1431,-0.905273,-0.617676,0.008301,-90.942383,0.915527,16.601562
1432,-0.862793,-0.531250,0.021484,-72.387695,25.695801,13.244629
1433,-0.792480,-0.517090,0.312988,-2.258301,53.894043,3.601074
1434,-0.752930,-0.526367,0.479980,16.479492,36.376953,-5.493164
1435,-0.696289,-0.528809,0.458008,14.526367,12.756348,-9.460449
1436,-0.555176,-0.645020,0.183105,-5.187988,-11.047363,-14.160156
1437,-0.453125,-0.685547,0.049805,-11.840820,-13.183594,-17.761230
1438,-0.333008,-0.668457,-0.064941,-12.756348,-11.169434,-20.080566
1439,-0.082031,-0.713379,0.198730,-17.211914,-28.747559,-7.080078
1440,0.001953,-0.988281,0.022461,-129.455566,-118.164062,23.986816
1441,-0.212402,-1.138184,-1.152344,-250.610352,-133.789062,26.428223
1442,-0.275879,-0.526367,-0.900879,-314.819336,-24.841309,40.405273
1443,-0.343750,-0.415527,-0.569336,-303.710938,-20.202637,48.889160
1444,-0.338379,-0.329590,-0.407715,-283.630371,-30.273438,48.339844
1445,-0.266602,-0.276855,-0.339844,-210.144043,-46.447754,33.691406
1446,-0.192383,-0.213867,-0.292480,-170.043945,-39.855957,25.451660
1447,-0.165527,-0.206543,-0.219238,-138.366699,-18.127441,13.122559
1448,-0.242676,-0.125977,-0.080078,-89.965820,25.756836,-18.188477
1449,-0.329590,-0.184082,-0.204590,-49.194336,33.386230,-35.949707
1450,-0.368652,-0.215332,-0.326172,11.901855,28.442383,-54.199219
1451,-0.395020,-0.185547,-0.308105,69.030762,9.582520,-67.932129
1452,-0.433105,-0.194336,-0.439941,140.625000,-50.964355,-82.946777
1453,-0.444336,-0.261719,-0.571289,173.217773,-67.749023,-85.632324
1454,-0.615723,-0.554199,-0.818359,221.679688,-79.406738,-97.778320
1455,-0.619629,-0.699707,-1.175781,212.097168,-81.665039,-104.248047
1456,-0.525391,-1.185059,-1.907715,120.544434,-38.696289,-96.435547
1457,-0.617676,-2.764160,-3.061035,-44.799805,142.944336,-39.550781
1458,-0.832520,-1.246582,0.079590,36.926270,65.734863,6.530762
1459,-1.034180,-0.529297,0.740723,27.404785,-29.357910,32.714844
1460,-1.125000,0.023438,0.191895,-108.947754,-59.997559,13.732910
1461,-0.741699,-0.058105,-0.327148,-87.280273,-48.828125,-6.774902
1462,-0.643066,-0.175293,-0.387207,-6.042480,-33.386230,-17.578125
1463,-0.527832,-0.425293,-0.424805,51.391602,-16.906738,-23.193359
1464,-0.954590,-1.904297,-1.041016,-38.818359,7.324219,21.362305
1465,-0.877930,-2.079102,-0.582031,108.703613,-8.605957,30.273438
1466,-0.882324,-1.103027,-0.128906,96.740723,-52.246094,33.020020
1467,-0.796387,-0.696289,-0.245605,34.118652,-47.973633,9.155273
1468,-0.692871,-0.577637,-0.434570,-2.502441,-20.935059,-20.141602
1469,-0.565430,-0.525391,-0.298340,22.399902,48.217773,-58.166504
1470,-0.532227,-0.534180,-0.097168,64.270020,56.213379,-63.354492
1471,-0.496094,-0.576660,-0.007812,115.051270,50.781250,-60.058594
1472,-0.504883,-0.652344,0.022949,165.161133,42.419434,-59.631348
1473,-0.477051,-0.726074,0.083984,237.548828,30.822754,-63.293457
1474,-0.457520,-0.805176,0.117676,245.910645,26.977539,-59.082031
1475,-0.475098,-1.142090,0.138184,211.425781,18.859863,-38.696289
1476,-0.470215,-1.336914,0.124023,171.569824,18.737793,-30.456543
1477,-0.411133,-1.413574,0.093750,120.422363,24.658203,-29.846191
1478,-0.133301,-1.155273,0.068359,27.343750,28.381348,-26.306152
1479,-0.095703,-0.972656,0.006836,10.620117,14.221191,-21.118164
1480,-0.097656,-0.884277,-0.095215,16.113281,-2.563477,-25.878906
1481,-0.096680,-0.782715,-0.174316,30.578613,-14.892578,-36.132812
1482,-0.220703,-0.625977,-0.372559,68.054199,-35.644531,-42.724609
1483,-0.287109,-0.517578,-0.466797,88.745117,-36.315918,-39.062500
1484,-0.411621,-0.323242,-0.684570,121.337891,13.549805,-10.681152
1485,-0.499512,-0.323730,-0.598145,125.488281,53.527832,-3.173828
1486,-0.553711,-0.269043,-0.387695,112.060547,82.153320,4.699707
1487,-0.579102,-0.322754,-0.184570,82.153320,91.186523,12.634277
1488,-0.415039,-0.456543,-0.095215,12.817383,62.866211,31.677246
1489,-0.365723,-0.588867,-0.179199,-0.183105,44.311523,49.865723
1490,-0.377441,-0.798828,-0.239258,-8.789062,20.141602,69.213867
1491,-0.339844,-0.935547,-0.279297,-10.131836,13.000488,70.739746
1492,-0.297363,-1.087402,-0.260254,-14.648438,9.521484,66.162109
1493,-0.259766,-1.203125,-0.217773,-25.268555,5.065918,58.471680
1494,-0.169434,-1.379395,-0.366211,-43.457031,-3.417969,39.550781
1495,-0.135254,-1.384277,-0.494141,-47.180176,6.042480,32.897949
1496,-0.160156,-1.458496,-0.665527,-45.837402,29.235840,25.634766
1497,-0.167480,-1.429199,-0.782227,-33.264160,63.964844,13.854980
1498,-0.373047,-1.237305,-0.555176,-39.794922,135.620117,-2.685547
1499,-0.502441,-1.168457,-0.283691,-66.223145,146.301270,-11.108398
1500,-0.563477,-1.079102,0.076172,-96.191406,121.093750,-5.371094
1501,-0.942871,-1.268066,0.487793,-166.870117,-9.338379,23.254395
1502,-1.131836,-1.442383,0.434082,-196.777344,-73.791504,22.644043
1503,-1.145020,-1.390625,0.357422,-215.332031,-123.962402,12.878418
1504,-0.892578,-1.188477,0.048340,-191.711426,-175.415039,12.878418
1505,-0.789551,-1.059570,-0.162598,-163.940430,-160.095215,9.765625
1506,-0.710938,-0.898438,-0.348145,-136.047363,-106.323242,8.972168
1507,-0.568848,-0.684082,-0.210938,-69.458008,14.099121,10.559082
1508,-0.577148,-0.653809,-0.077637,-28.076172,48.339844,3.601074
1509,-0.600586,-0.603027,0.109375,13.183594,58.654785,-2.319336
1510,-0.666016,-0.675781,0.118652,75.561523,26.000977,1.647949
1511,-0.709473,-0.732422,0.066406,96.496582,12.023926,-2.380371
1512,-0.678223,-0.729004,-0.008789,109.558105,2.258301,-5.493164
1513,-0.619141,-0.747070,-0.145020,121.887207,-3.173828,-3.540039
1514,-0.233398,-1.141602,0.335449,-13.183594,-114.929199,26.123047
1515,-0.279785,-1.349609,-1.137207,-146.667480,-152.038574,18.249512
1516,-0.373535,-0.490234,-1.135254,-146.789551,-59.509277,44.006348
1517,-0.389160,-0.301758,-0.795898,-157.226562,-20.874023,65.368652
1518,-0.398438,-0.317383,-0.552246,-176.818848,6.713867,74.890137
1519,-0.393555,-0.336914,-0.392578,-203.186035,32.592773,72.998047
1520,-0.350098,-0.322266,-0.118164,-242.736816,54.016113,60.974121
1521,-0.337891,-0.329102,-0.040039,-246.948242,52.490234,50.476074
1522,-0.291504,-0.300293,0.003906,-216.430664,34.790039,27.160645
1523,-0.256836,-0.364746,-0.116699,-173.889160,24.108887,17.456055
1524,-0.255859,-0.422852,-0.208984,-123.718262,20.446777,3.784180
1525,-0.243652,-0.434082,-0.253418,-72.204590,21.118164,-14.343262
1526,-0.260742,-0.387695,-0.253418,-27.404785,16.418457,-32.775879
1527,-0.332520,-0.332031,-0.419434,57.006836,-8.300781,-66.711426
1528,-0.383301,-0.272461,-0.500000,105.346680,-26.733398,-81.115723
1529,-0.434082,-0.209961,-0.538574,151.184082,-46.752930,-89.782715
1530,-0.599121,-0.409668,-0.590820,207.031250,-76.904297,-94.482422
1531,-0.657227,-0.549805,-0.723633,204.772949,-82.519531,-96.374512
1532,-0.674805,-0.747559,-1.014648,171.264648,-83.984375,-93.017578
1533,-0.539062,-2.750977,-2.797363,-57.312012,25.634766,-77.148438
1534,-0.804688,-1.768555,-1.386230,-111.450195,66.833496,-8.178711
1535,-1.120605,-0.835938,0.355469,-48.278809,33.203125,39.978027
1536,-1.199219,-0.262207,0.082520,89.782715,-94.848633,49.438477
1537,-0.917969,-0.887695,-0.520020,-1.953125,-111.999512,46.325684
1538,-0.671387,-0.926758,-0.899414,-48.583984,-108.215332,41.259766
1539,-0.816895,-1.167480,-0.961914,-72.509766,-54.809570,40.710449
1540,-0.720703,-0.920898,-0.956543,-38.024902,-35.156250,35.217285
1541,-0.887207,-0.893555,-0.442383,-47.058105,38.269043,39.611816
1542,-0.883789,-0.839355,-0.199707,-57.983398,66.101074,33.935547
1543,-0.706543,-0.625000,-0.148926,-65.490723,93.994141,10.253906
1544,-0.720215,-0.617188,-0.180176,-27.526855,101.806641,-0.793457
1545,-0.755371,-0.655273,-0.140625,40.954590,96.679688,-13.244629
1546,-0.695801,-0.729492,-0.049316,216.552734,60.363770,-47.119141
1547,-0.597656,-0.662598,0.070312,294.372559,40.405273,-61.828613
1548,-0.534668,-0.678223,0.110840,346.313477,19.226074,-68.054199
1549,-0.533203,-0.861328,0.116699,363.525391,-4.150391,-73.791504
1550,-0.515137,-1.000977,0.109863,320.434570,1.525879,-69.580078
1551,-0.473633,-1.123047,0.154785,247.802734,18.737793,-56.640625
1552,-0.417969,-1.250977,0.258789,71.166992,51.147461,-16.235352
1553,-0.370605,-1.259277,0.390137,12.573242,43.334961,-5.920410
1554,-0.332520,-1.254883,0.486816,-12.939453,4.089355,-9.826660
1555,-0.251465,-1.001953,0.213379,-11.352539,-116.577148,-26.855469
1556,-0.202637,-0.959961,-0.285156,7.141113,-118.469238,-35.827637
1557,-0.082520,-0.835938,-0.500000,21.545410,-83.312988,-48.034668
1558,0.011719,-0.687500,-0.589844,33.996582,-38.208008,-52.307129
1559,-0.026855,-0.457520,-0.799805,98.083496,27.832031,-31.799316
1560,-0.208496,-0.299316,-0.773438,143.859863,52.795410,-16.418457
1561,-0.402344,-0.219238,-0.530273,138.305664,63.110352,-7.507324
1562,-0.448242,-0.278809,-0.429199,89.904785,74.523926,12.451172
1563,-0.456055,-0.350586,-0.291504,57.373047,81.115723,25.817871
1564,-0.452637,-0.474609,-0.231934,24.414062,83.862305,37.658691
1565,-0.439453,-0.729004,-0.199707,-5.615234,66.040039,56.762695
1566,-0.445801,-0.873535,-0.208984,-6.774902,48.156738,63.537598
1567,-0.434570,-1.006348,-0.229980,-4.272461,29.052734,66.406250
1568,-0.327637,-1.242676,-0.240234,-21.728516,8.789062,64.880371
1569,-0.281250,-1.383301,-0.270020,-42.785645,7.629395,56.091309
1570,-0.242676,-1.478516,-0.355469,-62.683105,9.887695,40.527344
1571,-0.236328,-1.545898,-0.723633,-69.824219,35.644531,7.141113
1572,-0.183594,-1.498047,-0.868164,-55.053711,65.185547,-4.455566
1573,-0.155273,-1.344727,-0.872559,-47.851562,104.492188,-13.854980
1574,-0.236816,-1.118164,-0.860840,-47.241211,139.404297,-11.047363
1575,-0.475586,-0.954590,-0.233398,-53.894043,145.507812,13.427734
1576,-0.582031,-1.090332,0.047852,-86.914062,105.163574,19.958496
1577,-0.663574,-1.143066,0.115723,-159.851074,23.681641,20.935059
1578,-0.820801,-1.283691,0.137207,-187.927246,-9.704590,22.705078
1579,-0.953613,-1.451172,0.173340,-210.083008,-47.790527,16.052246
1580,-1.018066,-1.534180,0.169434,-219.055176,-89.233398,2.136230
1581,-1.000488,-1.170410,-0.062988,-204.650879,-143.432617,-8.728027
1582,-0.967285,-0.961426,-0.229004,-188.842773,-126.525879,-2.807617
1583,-0.850098,-0.656738,-0.169434,-141.235352,-52.612305,-1.770020
1584,-0.784180,-0.586426,-0.122559,-106.933594,-13.977051,-2.441406
1585,-0.697266,-0.533203,-0.044922,-59.509277,23.986816,-6.286621
1586,-0.645508,-0.450684,0.134766,-13.793945,50.598145,-11.169434
1587,-0.588867,-0.338867,0.471191,38.818359,36.254883,-11.901855
1588,-0.591797,-0.422852,0.330078,46.142578,9.887695,-9.643555
1589,-0.568848,-0.522949,0.131836,53.405762,-7.507324,-10.620117
1590,-0.508301,-0.575195,-0.033691,62.072754,-12.451172,-10.131836
1591,-0.356445,-0.611328,-0.220215,71.838379,4.333496,-4.577637
1592,-0.309082,-0.644043,-0.277832,72.204590,18.249512,-0.183105
1593,-0.169434,-0.633789,-0.344727,64.636230,41.625977,7.507324
1594,0.072266,-0.855469,0.583984,7.324219,20.812988,17.395020
1595,-0.091797,-1.348633,-1.048340,-311.828613,-78.186035,18.737793
1596,-0.012695,-0.798828,-1.517578,-295.593262,-59.692383,-15.747070
1597,0.024414,-0.086426,-0.531738,-208.618164,-72.937012,14.221191
1598,-0.079102,-0.118652,-0.433105,-185.852051,-86.853027,23.193359
1599,-0.214355,-0.265625,-0.388184,-122.314453,-91.857910,-17.456055
1600,-0.340332,-0.280273,-0.276367,-85.021973,-85.449219,-44.067383
1601,-0.402344,-0.282227,-0.227051,-46.325684,-77.148438,-68.420410
1602,-0.444336,-0.297852,-0.240723,-10.314941,-66.284180,-89.721680
1603,-0.468262,-0.338867,-0.383789,73.242188,-31.738281,-106.506348
1604,-0.514160,-0.376953,-0.391602,120.117188,-16.479492,-94.543457
1605,-0.594238,-0.505859,-0.371094,157.958984,-16.174316,-78.918457
1606,-0.626953,-0.722656,-0.460449,163.635254,-58.776855,-63.598633
1607,-0.554688,-0.846680,-0.828125,115.722656,-80.688477,-60.913086
1608,-0.238770,-1.998047,-2.419434,-47.058105,-15.075684,-58.593750
1609,-0.310547,-2.121582,-2.547363,-154.479980,78.491211,-82.336426
1610,-0.635254,-0.984863,-1.077148,-75.805664,56.030273,-31.005859
1611,-1.010254,-0.563477,-0.206055,8.483887,-2.929688,30.700684
1612,-1.363770,-0.399414,0.467773,83.679199,-65.979004,22.583008
1613,-1.126465,-0.282227,0.454102,56.274414,-63.232422,-9.399414
1614,-0.942383,-0.417969,0.248047,6.530762,-35.583496,-23.254395
1615,-0.990234,-1.058594,-0.169922,-76.599121,19.165039,-3.295898
1616,-1.077148,-1.608398,-0.428223,-183.288574,30.578613,25.451660
1617,-0.660156,-1.475098,-0.953125,49.987793,-13.305664,10.742188
1618,-0.501953,-1.019043,-0.413086,159.667969,0.244141,3.051758
1619,-0.506348,-0.853516,-0.125000,179.260254,20.141602,1.098633
1620,-0.572266,-0.813965,-0.061523,148.864746,51.513672,-8.422852
1621,-0.538086,-0.761230,-0.111816,100.585938,108.581543,-36.193848
1622,-0.432617,-0.749512,-0.059570,105.712891,114.624023,-42.602539
1623,-0.270996,-0.662109,0.110840,114.074707,89.904785,-29.174805
1624,-0.290039,-0.685059,0.085938,117.614746,70.861816,-16.174316
1625,-0.373535,-0.743164,0.083496,123.413086,53.894043,-5.126953
1626,-0.554688,-0.886719,0.150391,119.018555,21.728516,-3.601074
1627,-0.578613,-0.915039,0.138672,111.694336,9.338379,-5.249023
1628,-0.565430,-0.948730,0.108887,102.966309,0.122070,-8.239746
1629,-0.486816,-1.000977,0.141113,85.388184,-17.028809,-29.052734
1630,-0.468750,-0.978516,0.269531,62.255859,-34.545898,-39.489746
1631,-0.403809,-1.012695,0.017578,33.203125,-43.945312,-47.607422
1632,-0.309570,-1.024414,-0.280762,16.052246,-22.827148,-57.983398
1633,-0.035645,-0.731934,-0.282227,-3.479004,24.902344,-54.260254
1634,0.030762,-0.657715,-0.424316,2.868652,33.996582,-41.503906
1635,0.010742,-0.637207,-0.593262,28.503418,45.837402,-35.583496
1636,-0.092285,-0.381836,-0.861328,120.910645,76.965332,-16.967773
1637,-0.149414,-0.340332,-0.564941,151.306152,90.820312,-4.760742
1638,-0.202637,-0.411621,-0.207031,102.722168,82.519531,13.305664
1639,-0.194824,-0.477051,-0.219238,61.645508,67.932129,21.484375
1640,-0.234375,-0.586914,-0.223145,26.000977,54.565430,32.165527
1641,-0.300293,-0.772461,-0.217285,-28.930664,20.812988,38.208008
1642,-0.266113,-0.828125,-0.282715,-33.935547,-0.305176,34.362793
1643,-0.222168,-0.863770,-0.310059,-36.621094,-14.282227,29.479980
1644,-0.189941,-0.971680,-0.410645,-53.955078,-8.361816,19.287109
1645,-0.223145,-1.043945,-0.455078,-60.180664,6.225586,13.793945
1646,-0.289551,-1.140625,-0.475586,-62.133789,21.423340,7.629395
1647,-0.349609,-1.389648,-0.620117,-54.626465,46.630859,-12.878418
1648,-0.271973,-1.350586,-0.759766,-41.503906,61.157227,-20.446777
1649,-0.213867,-1.193359,-0.854004,-21.118164,85.449219,-11.291504
1650,-0.301270,-1.357422,-0.305176,-65.490723,132.507324,17.822266
1651,-0.345703,-1.517090,-0.138184,-118.896484,131.286621,33.325195
1652,-0.492676,-1.750488,-0.026855,-145.446777,101.318359,39.855957
1653,-0.898926,-1.791016,0.252441,-77.819824,-51.940918,14.282227
1654,-0.978027,-1.687988,0.073730,3.967285,-124.267578,8.605957
1655,-1.081055,-1.606934,-0.125488,104.187012,-145.812988,10.620117
1656,-1.143066,-1.488770,-0.084473,203.247070,-118.530273,12.390137
1657,-0.945801,-0.907715,0.463379,333.618164,-37.963867,17.456055
1658,-0.874512,-0.575195,0.940918,363.586426,-23.193359,26.367188
1659,-0.775391,-0.195801,1.285156,351.928711,-49.865723,39.550781
1660,-0.695312,-0.203125,1.307617,201.477051,-109.375000,60.607910
1661,-0.514648,-0.302734,1.030762,90.087891,-124.267578,44.555664
1662,-0.071777,-0.275879,0.431152,-60.668945,-133.483887,50.598145
1663,-0.042969,-0.404297,0.244629,-121.765137,-128.967285,103.820801
1664,-0.050781,-0.679688,0.150391,-192.443848,-133.483887,163.757324
1665,-0.158691,-0.804688,0.167969,-273.132324,-162.170410,218.627930
1666,-0.772461,-1.050293,-0.478516,-431.091309,-177.795410,235.961914
1667,-0.863770,-0.981934,-0.798340,-466.552734,-136.169434,186.218262
1668,-0.717285,-0.302246,-1.431641,-297.424316,-60.607910,121.643066
1669,-0.773438,-0.319336,-0.832520,-164.978027,-49.377441,66.101074
1670,-0.418457,-0.130859,-0.122070,-133.789062,-44.433594,12.390137
1671,-0.203613,-0.141602,0.175781,-150.085449,-29.907227,-40.466309
1672,-0.206055,-0.187012,0.146484,-131.591797,-24.108887,-53.649902
1673,-0.253906,-0.202148,0.125000,-106.262207,-23.925781,-64.514160
1674,-0.332520,-0.246582,0.045410,-84.167480,-27.465820,-78.308105
1675,-0.447754,-0.395020,-0.144043,-31.250000,-55.969238,-99.548340
1676,-0.535645,-0.601562,-0.165527,-8.422852,-81.359863,-105.407715
1677,-0.628418,-0.874023,-0.170898,-8.117676,-109.008789,-105.407715
1678,-3.481934,-2.278809,0.587402,53.405762,-0.427246,37.597656
1679,-1.245605,0.230469,-0.152832,85.571289,-109.985352,-80.444336
1680,-1.262695,-0.580078,-0.253418,114.990234,-105.590820,-21.057129
1681,-0.576172,0.048340,-0.307617,52.612305,-110.290527,-29.602051
1682,-0.309570,-0.251465,-0.298340,-2.441406,-74.462891,-12.878418
1683,-0.184082,-0.346680,-0.022949,-46.997070,-33.142090,-12.817383
1684,-0.518555,-0.440430,0.487305,-174.865723,-5.004883,18.859863
1685,-0.856934,-0.693848,0.348145,-228.698730,-16.357422,28.503418
1686,-1.120605,-0.660156,0.226074,-238.769531,-18.737793,28.930664
1687,-1.270508,-1.031738,0.120117,-245.544434,-28.137207,46.691895
1688,-1.385254,-2.636230,-0.003418,-192.932129,-63.842773,2.807617
1689,-0.901855,-2.511230,0.059570,-132.568359,-62.438965,-45.532227
1690,-0.315918,-1.359375,-0.091309,-159.240723,-16.540527,-60.607910
1691,-0.349121,-0.789551,-0.530762,-134.826660,-16.967773,-64.025879
1692,-0.618652,-0.145020,-0.665527,-53.955078,2.746582,-45.776367
1693,-0.595215,-0.249512,-0.401367,-25.207520,1.953125,-39.978027
1694,-0.586914,-0.601562,-0.176270,2.685547,-4.394531,-38.085938
1695,-0.383301,-0.835449,0.257812,43.640137,-36.682129,-46.813965
1696,-0.301758,-0.818848,0.177246,48.828125,-56.823730,-38.696289
1697,-0.291016,-0.839844,0.030762,58.410645,-73.181152,-31.982422
1698,-0.281250,-0.925293,-0.187500,77.270508,-103.515625,-16.235352
1699,-0.322266,-1.006348,-0.301270,71.228027,-108.276367,-7.934570
1700,-0.375977,-1.083008,-0.362305,57.983398,-108.093262,-1.403809
1701,-0.423828,-1.037598,-0.455566,28.442383,-95.031738,-0.366211
1702,-0.416016,-0.903320,-0.453613,11.169434,-78.674316,-3.601074
1703,-0.438965,-0.762695,-0.400879,-8.666992,-60.302734,-5.310059
1704,-0.583984,-0.608398,-0.207031,-40.893555,-35.278320,0.305176
1705,-0.642578,-0.634766,-0.100586,-49.072266,-32.897949,3.356934
1706,-0.723145,-0.734863,-0.035156,-48.278809,-45.959473,-0.488281
1707,-0.750977,-0.837891,-0.091797,-44.738770,-51.391602,-4.516602
1708,-0.715332,-0.852539,-0.163574,-44.006348,-51.818848,-7.812500
1709,-0.648926,-0.806152,-0.219727,-44.677734,-45.959473,-7.690430
1710,-0.591309,-0.738770,-0.274414,-45.654297,-25.451660,0.000000
1711,-0.561035,-0.752441,-0.257812,-45.104980,-16.784668,2.197266
1712,-0.541992,-0.757812,-0.216309,-45.898438,-11.047363,3.540039
1713,-0.492676,-0.763672,-0.137207,-44.494629,-13.671875,4.028320
1714,-0.446289,-0.762207,-0.087402,-39.672852,-20.324707,1.586914
1715,-0.456543,-0.812988,-0.117676,-37.292480,-31.921387,-2.685547
1716,-0.463867,-0.866211,-0.182129,-37.475586,-31.372070,-6.408691
1717,-0.495117,-0.924316,-0.239258,-37.170410,-26.794434,-10.681152
1718,-0.537109,-0.941895,-0.276855,-37.109375,-21.789551,-14.160156
1719,-0.572266,-0.836914,-0.301758,-39.184570,-9.033203,-13.488770
1720,-0.601562,-0.756836,-0.299316,-40.100098,-5.004883,-10.375977
1721,-0.641602,-0.717285,-0.301758,-39.855957,-3.784180,-6.225586
1722,-0.674805,-0.751953,-0.292480,-39.855957,-2.380371,-1.647949
1723,-0.633301,-0.739746,-0.283203,-36.071777,-2.075195,-1.770020
1724,-0.614258,-0.735840,-0.280762,-30.395508,-1.281738,-2.258301
1725,-0.583008,-0.685547,-0.270508,-21.484375,-0.549316,-1.586914
1726,-0.569336,-0.684082,-0.266602,-21.362305,2.502441,-1.708984
1727,-0.555176,-0.702637,-0.224609,-21.728516,5.187988,-2.380371
1728,-0.549805,-0.703613,-0.207520,-23.498535,5.310059,-2.929688
1729,-0.580078,-0.693359,-0.244141,-28.259277,4.638672,-3.417969
1730,-0.562500,-0.714844,-0.306641,-30.578613,6.164551,-4.943848
1731,-0.584961,-0.666504,-0.305664,-35.217285,8.117676,-3.417969
1732,-0.533691,-0.663086,-0.390625,-49.865723,16.723633,-2.136230
1733,-0.519531,-0.638672,-0.355957,-58.410645,20.385742,-0.915527
1734,-0.531738,-0.679199,-0.376465,-65.673828,22.338867,-1.647949
1735,-0.506836,-0.710449,-0.350098,-69.641113,23.376465,-7.141113
1736,-0.534180,-0.713867,-0.376465,-69.030762,26.977539,-7.873535
1737,-0.556152,-0.723633,-0.369141,-69.213867,31.555176,-7.385254
1738,-0.594238,-0.706055,-0.396973,-67.077637,36.865234,-3.662109
1739,-0.576172,-0.699219,-0.372070,-63.110352,35.095215,-5.126953
1740,-0.557617,-0.715820,-0.385254,-58.715820,30.517578,-9.155273
1741,-0.493164,-0.718262,-0.366699,-41.809082,19.042969,-18.615723
1742,-0.496582,-0.671387,-0.398926,-34.179688,14.892578,-21.667480
1743,-0.495605,-0.636230,-0.453125,-32.958984,13.916016,-23.315430
1744,-0.595215,-0.587402,-0.449219,-43.701172,18.249512,-17.883301
1745,-0.609863,-0.617188,-0.427246,-54.138184,23.864746,-18.066406
1746,-0.602539,-0.632324,-0.392578,-60.546875,26.428223,-18.493652
1747,-0.610840,-0.667480,-0.397949,-60.363770,25.451660,-18.249512
1748,-0.592773,-0.653320,-0.407227,-57.983398,23.376465,-18.005371
1749,-0.587891,-0.629395,-0.495605,-55.908203,24.536133,-16.906738
1750,-0.604492,-0.583008,-0.484863,-59.143066,27.099609,-14.526367
1751,-0.537598,-0.591309,-0.579590,-78.308105,40.222168,-13.732910
1752,-0.519531,-0.619141,-0.593750,-83.984375,42.602539,-14.038086
1753,-0.518555,-0.628418,-0.551270,-83.190918,43.518066,-13.610840
1754,-0.464844,-0.629395,-0.563477,-75.866699,38.818359,-16.357422
1755,-0.478027,-0.654785,-0.563965,-71.350098,40.344238,-15.808105
1756,-0.492676,-0.596680,-0.618164,-75.561523,41.259766,-16.845703
1757,-0.547852,-0.576172,-0.608887,-96.191406,50.720215,-10.498047
1758,-0.567383,-0.560547,-0.565918,-100.341797,54.138184,-10.620117
1759,-0.557129,-0.573242,-0.643066,-103.820801,52.551270,-10.375977
1760,-0.526855,-0.511230,-0.626465,-93.627930,48.461914,-8.728027
1761,-0.487305,-0.471191,-0.625000,-80.932617,45.837402,-6.103516
1762,-0.464355,-0.482422,-0.609375,-68.969727,41.259766,-5.859375
1763,-0.449219,-0.476562,-0.631348,-57.617188,36.254883,-7.507324
1764,-0.500977,-0.513672,-0.788574,-40.771484,31.494141,-2.929688
1765,-0.504395,-0.489258,-0.807129,-36.621094,29.418945,-3.173828
1766,-0.572754,-0.405273,-0.862793,-32.470703,29.479980,0.610352
1767,-0.575195,-0.469727,-0.807129,-28.015137,27.343750,4.333496
1768,-0.514648,-0.503906,-0.726562,-14.709473,18.432617,5.004883
1769,-0.498047,-0.461426,-0.815918,-16.174316,16.540527,2.624512
1770,-0.452637,-0.430176,-0.813965,-17.761230,18.310547,1.770020
1771,-0.411133,-0.419922,-0.826172,-14.892578,17.456055,0.671387
1772,-0.449219,-0.470703,-0.923828,-3.845215,12.512207,2.563477
1773,-0.497559,-0.535156,-0.948242,3.356934,7.446289,1.831055
1774,-0.488281,-0.493164,-0.928711,12.023926,2.746582,2.258301
1775,-0.554199,-0.396973,-1.002930,15.197754,-0.671387,6.835938
1776,-0.537598,-0.383301,-1.041992,11.596680,0.610352,9.094238
1777,-0.504883,-0.433105,-1.025391,7.873535,1.220703,9.277344
1778,-0.530762,-0.520020,-1.081543,6.896973,-0.732422,10.986328
1779,-0.566895,-0.560547,-1.076172,8.850098,-1.403809,12.817383
1780,-0.554688,-0.566406,-1.069336,13.122559,-2.380371,13.916016
1781,-0.486816,-0.525391,-1.072266,16.418457,-0.610352,15.380859
1782,-0.467773,-0.524414,-1.045410,17.089844,0.305176,15.563965
1783,-0.444824,-0.511230,-1.014648,17.211914,0.793457,15.502930
1784,-0.463867,-0.443359,-1.007324,14.038086,4.211426,17.578125
1785,-0.468262,-0.421875,-0.981934,13.488770,5.493164,19.531250
1786,-0.466797,-0.395020,-0.977539,12.512207,7.141113,21.240234
1787,-0.453613,-0.353027,-0.936523,10.192871,11.230469,24.230957
1788,-0.444336,-0.343262,-0.935547,9.948730,12.756348,25.817871
1789,-0.442383,-0.350098,-0.937012,8.972168,14.282227,26.855469
1790,-0.435547,-0.341309,-0.916016,7.934570,15.808105,28.320312
1791,-0.451660,-0.407227,-0.917480,9.704590,17.944336,27.770996
1792,-0.464355,-0.412598,-0.912598,10.986328,18.188477,27.160645
1793,-0.481934,-0.416992,-0.905273,13.061523,15.136719,27.893066
1794,-0.471191,-0.385742,-0.881836,17.089844,14.160156,29.479980
1795,-0.501953,-0.410156,-0.846680,18.676758,10.742188,31.738281
1796,-0.498535,-0.428711,-0.805664,33.203125,4.943848,33.020020
1797,-0.505371,-0.411133,-0.767090,42.053223,-1.159668,33.203125
1798,-0.503906,-0.402832,-0.790039,54.321289,-4.638672,34.118652
1799,-0.545410,-0.470703,-0.719727,76.538086,-15.258789,32.592773
1800,-0.584961,-0.494629,-0.665527,90.881348,-22.583008,30.883789
1801,-0.541016,-0.477539,-0.664062,127.685547,-34.301758,26.367188
1802,-0.538086,-0.471191,-0.651367,145.507812,-41.198730,26.855469
1803,-0.540039,-0.462891,-0.654785,158.264160,-48.583984,26.245117
1804,-0.559570,-0.469727,-0.673828,166.687012,-53.222656,25.634766
1805,-0.543457,-0.470215,-0.704590,171.813965,-60.058594,24.108887
1806,-0.571777,-0.477539,-0.686523,170.471191,-58.349609,21.911621
1807,-0.567383,-0.436523,-0.697754,162.536621,-51.147461,18.737793
1808,-0.593750,-0.437012,-0.673340,162.536621,-45.410156,19.104004
1809,-0.587891,-0.454102,-0.640137,162.414551,-39.916992,18.371582
1810,-0.572266,-0.471680,-0.605957,160.339355,-34.423828,18.188477
1811,-0.595215,-0.481934,-0.474609,139.465332,-31.555176,19.714355
1812,-0.590820,-0.493164,-0.433594,122.009277,-33.325195,21.179199
1813,-0.614258,-0.491211,-0.414551,102.539062,-35.339355,24.658203
1814,-0.635742,-0.522461,-0.437500,63.659668,-29.968262,29.235840
1815,-0.651367,-0.553223,-0.473633,52.734375,-22.277832,29.113770
1816,-0.643555,-0.580566,-0.462891,49.560547,-12.512207,26.977539
1817,-0.676758,-0.650879,-0.397461,58.959961,3.540039,20.202637
1818,-0.702148,-0.618164,-0.291992,65.734863,6.835938,16.540527
1819,-0.706055,-0.614258,-0.284180,71.044922,8.361816,14.831543
1820,-0.728027,-0.633789,-0.293457,78.674316,12.756348,13.610840
1821,-0.708008,-0.720215,-0.288574,97.717285,32.287598,5.371094
1822,-0.678711,-0.732422,-0.264160,102.294922,44.555664,0.244141
1823,-0.620605,-0.688965,-0.174805,103.088379,65.307617,-3.356934
