order,ax,ay,az,gx,gy,gz
0,0.376465,-0.297363,0.702637,-20.812988,-15.563965,10.070801
1,0.358398,-0.488770,0.587891,-17.578125,-11.718750,23.193359
2,0.292969,-0.543945,0.662109,-4.638672,2.624512,18.554688
3,0.230469,-0.521973,1.083984,-8.605957,14.099121,0.549316
4,0.250977,-0.479004,1.121094,-24.475098,5.981445,-5.859375
5,0.287109,-0.447754,1.052246,-36.376953,1.525879,-9.765625
6,0.357422,-0.357910,0.917969,-40.832520,16.601562,-6.652832
7,0.344727,-0.373047,0.902344,-40.527344,33.691406,-2.990723
8,0.342773,-0.395996,0.925293,-37.902832,48.034668,-0.244141
9,0.269531,-0.506348,1.013184,-27.832031,52.246094,-0.671387
10,0.249023,-0.543945,1.032227,-21.301270,46.813965,-5.737305
11,0.262695,-0.547363,1.076172,-13.610840,38.330078,-10.131836
12,0.269531,-0.529297,1.096191,-5.859375,29.174805,-13.977051
13,0.278809,-0.381836,1.209961,15.258789,23.620605,-24.475098
14,0.292969,-0.273438,1.352051,18.432617,28.869629,-26.306152
15,0.302246,-0.194824,1.451172,8.972168,39.733887,-25.268555
16,0.232422,-0.234375,1.519043,-25.634766,53.771973,-18.371582
17,0.120117,-0.308594,1.476074,-32.470703,37.841797,-17.333984
18,0.036621,-0.319336,1.407227,-26.855469,10.253906,-21.118164
19,0.022949,-0.261230,1.203613,-22.827148,-45.837402,-28.259277
20,0.057617,-0.232910,1.000977,-18.493652,-61.340332,-29.418945
21,0.118164,-0.209961,0.857910,-8.972168,-61.523438,-27.709961
22,0.185547,-0.186035,0.766113,-1.464844,-46.386719,-22.094727
23,0.195312,-0.213379,0.729492,-0.488281,11.657715,-10.986328
24,0.157715,-0.268555,0.749512,-6.347656,41.503906,-10.742188
25,0.111816,-0.333008,0.803711,-8.544922,59.692383,-14.465332
26,0.031250,-0.418457,0.912598,-0.671387,39.733887,-27.038574
27,0.042480,-0.406250,0.900879,6.469727,12.939453,-35.888672
28,0.089844,-0.386719,0.874512,7.629395,-13.427734,-44.616699
29,0.167480,-0.345703,0.785156,3.845215,-31.372070,-51.208496
30,0.321777,-0.246582,0.611328,-3.540039,-31.799316,-52.185059
31,0.397461,-0.200684,0.578125,-5.920410,-19.165039,-46.813965
32,0.439941,-0.181152,0.578125,-9.582520,-5.249023,-39.489746
33,0.368652,-0.231445,0.582031,-6.896973,-3.173828,-21.179199
34,0.311523,-0.277344,0.590820,3.784180,-18.310547,-18.127441
35,0.290039,-0.271484,0.572266,13.000488,-34.484863,-18.737793
36,0.292480,-0.245117,0.545898,28.747559,-48.889160,-18.005371
37,0.352051,-0.223633,0.638672,31.250000,-46.081543,-16.357422
38,0.379395,-0.208008,0.684570,28.503418,-38.391113,-13.671875
39,0.400391,-0.199219,0.708496,22.460938,-26.184082,-9.521484
40,0.424805,-0.212402,0.708984,16.479492,-9.826660,-4.089355
41,0.416016,-0.266602,0.755371,2.319336,14.587402,10.925293
42,0.360840,-0.311523,0.828125,1.953125,9.948730,15.930176
43,0.333008,-0.348633,0.844238,5.493164,-3.967285,19.592285
44,0.073242,-0.624023,0.961914,27.709961,-39.611816,9.704590
45,0.040527,-0.691895,1.013672,36.560059,-62.133789,-14.343262
46,0.013184,-0.703125,1.104980,30.151367,-72.326660,-46.447754
47,0.025391,-0.668457,1.035645,23.376465,-86.059570,-115.844727
48,0.516602,-0.355469,0.888184,10.437012,-71.044922,-118.347168
49,0.671387,-0.423340,0.689453,6.713867,-41.442871,-113.525391
50,0.677246,-0.516113,0.587402,46.508789,-13.244629,-118.469238
51,0.872070,-0.491211,0.960449,106.872559,2.746582,-111.206055
52,0.848145,-0.261230,0.975098,104.248047,6.408691,-129.150391
53,0.774902,0.013672,1.284668,97.412109,0.671387,-146.179199
54,0.720703,0.242188,1.359863,45.532227,7.141113,-144.348145
55,0.585449,0.430176,1.159180,-30.639648,81.237793,-115.234375
56,0.484863,0.434082,1.078125,-59.265137,133.178711,-96.740723
57,0.383301,0.389160,1.043457,-69.274902,174.438477,-79.711914
58,0.241211,0.265625,1.082520,-105.957031,195.434570,-47.363281
59,0.173340,0.220703,1.027832,-122.680664,186.828613,-49.011230
60,0.157227,0.203125,1.183594,-129.394531,168.029785,-60.119629
61,0.138184,0.089844,1.273438,-118.286133,125.244141,-77.636719
62,0.105957,0.036621,1.173828,-126.831055,77.819824,-122.131348
63,0.144531,0.127930,1.099609,-182.312012,91.674805,-147.705078
64,0.178711,0.314941,1.094238,-225.952148,99.792480,-167.541504
65,0.181641,0.502441,1.082031,-226.318359,84.472656,-167.358398
66,-0.013672,0.542969,0.788086,-181.823730,50.354004,-125.305176
67,-0.077148,0.331543,0.793457,-200.195312,80.932617,-96.252441
68,-0.098633,0.104004,0.573730,-248.107910,122.802734,-76.538086
69,0.267090,-0.077637,0.625000,-265.380859,213.989258,-25.817871
70,0.472656,-0.128906,0.835449,-270.874023,224.243164,17.272949
71,0.300781,-0.239258,0.796875,-298.095703,211.791992,48.339844
72,0.153809,-0.394043,0.620605,-306.152344,199.218750,60.424805
73,0.050781,-0.705566,0.603027,-282.409668,165.344238,56.091309
74,-0.295410,-1.050293,0.372070,-229.919434,130.798340,19.287109
75,-0.507812,-0.907715,0.081055,-166.564941,141.540527,-37.048340
76,-0.583984,-0.503418,0.334473,-105.102539,217.468262,-104.675293
77,-0.560547,-0.431152,0.567871,-73.791504,210.693359,-132.263184
78,-0.598633,-0.489746,0.663574,-53.955078,181.579590,-143.554688
79,-0.968262,-0.729492,0.625977,-151.062012,290.588379,-142.822266
80,-0.935547,-1.034668,0.383789,-291.687012,382.507324,-175.537109
81,-0.749023,-1.051270,0.135742,-381.286621,453.247070,-241.577148
82,-0.361328,-0.422852,-0.084961,-260.131836,489.807129,-232.604980
83,-0.214355,-0.397949,0.184570,-131.774902,437.011719,-176.269531
84,0.302734,-0.130859,-2.357910,154.663086,350.219727,-143.005371
85,-0.070801,-0.130859,-0.232910,170.532227,369.201660,-22.888184
86,-0.212891,-0.632324,0.465332,168.945312,399.353027,21.118164
87,0.115234,-0.537598,0.520020,148.498535,374.328613,78.979492
88,-0.037598,-0.750977,0.637695,138.549805,365.173340,129.150391
89,-0.544434,-1.248535,0.779785,132.324219,323.181152,101.074219
90,-0.810547,-1.670410,1.159668,124.206543,301.391602,58.715820
91,-0.744629,-1.609375,1.141113,96.191406,254.699707,-20.385742
92,-0.320312,-1.000000,1.104980,28.930664,217.163086,-62.011719
93,-0.598633,-1.294434,0.986816,-33.142090,220.214844,-54.626465
94,-0.803223,-1.393066,0.897461,-102.600098,235.961914,-61.157227
95,-0.689941,-1.424316,0.714355,-153.930664,249.267578,-68.847656
96,-0.430664,-1.218750,0.755859,-189.941406,250.488281,-96.008301
97,-0.336914,-1.090332,1.635742,-225.646973,192.687988,-89.843750
98,-0.317383,-1.337402,1.122070,-240.539551,141.052246,-87.219238
99,-0.469238,-1.862793,0.372559,-337.829590,154.724121,-126.770020
100,-0.093262,-1.772949,-0.418457,-243.286133,187.194824,-158.386230
101,0.115723,-1.284668,0.129395,-131.408691,198.608398,-135.070801
102,0.108887,-1.086914,0.693359,-37.414551,55.969238,-42.297363
103,0.049805,-1.094727,0.466309,-42.236328,5.554199,-29.541016
104,0.167969,-1.094238,0.270996,-24.414062,-9.033203,-2.685547
105,0.163574,-1.169434,0.217285,-9.033203,-22.399902,37.597656
106,-0.028809,-1.262207,-0.152832,-24.475098,-40.649414,72.265625
107,-0.166992,-1.306641,-0.237793,-31.433105,-38.085938,68.847656
108,-0.308594,-1.344727,-0.498047,-47.180176,-37.719727,64.270020
109,-0.365234,-1.123047,-0.309082,-99.548340,-28.198242,84.411621
110,-0.529785,-1.315918,-0.431152,-85.510254,-27.709961,61.279297
111,-0.508301,-1.143555,-0.388184,-39.550781,-37.353516,25.512695
112,-0.498535,-0.889160,-0.183594,14.892578,-39.794922,-2.929688
113,-0.375977,-0.404297,0.070801,64.392090,-35.034180,-45.166016
114,-0.266113,-0.065918,0.144531,55.419922,-32.775879,-53.955078
115,-0.099609,-0.116699,0.156738,66.040039,-65.490723,-11.901855
116,-0.265625,-0.187012,0.185059,68.115234,-74.340820,20.019531
117,-0.345215,-0.507324,0.149902,72.937012,-84.472656,13.916016
118,-0.333008,-0.674805,0.291992,79.833984,-99.182129,-8.789062
119,-0.153809,-0.824707,0.200684,76.171875,-173.645020,-54.260254
120,-0.340820,-0.407227,0.148438,13.854980,-153.625488,-20.385742
121,0.149414,-0.237305,0.678223,-62.683105,-152.404785,17.883301
122,-0.093262,-1.124023,0.310059,-129.699707,-169.372559,36.376953
123,-0.844238,-0.651367,-0.366699,-129.943848,-173.706055,4.333496
124,-0.642090,-0.642578,-0.474609,-112.976074,-145.874023,-12.084961
125,-0.408203,-0.503418,-0.219727,-87.341309,-117.370605,-13.610840
126,-0.118164,-0.794434,-0.023926,-20.568848,-91.491699,42.053223
127,-0.101562,-1.162598,0.069336,3.051758,-82.519531,65.368652
128,-0.145996,-1.461426,0.248047,0.000000,-75.500488,68.481445
129,-0.366699,-1.552734,0.388672,-45.959473,-93.383789,46.264648
130,-0.346191,-1.353027,0.234375,-56.335449,-106.689453,41.687012
131,-0.419922,-1.181152,0.040527,-14.343262,-106.689453,50.292969
132,-0.415039,-1.127930,-0.058594,34.179688,-112.060547,50.109863
133,-0.379395,-1.185059,0.070312,83.801270,-111.450195,64.941406
134,-0.582520,-1.370117,-0.054199,133.300781,-145.690918,43.762207
135,-0.680176,-1.472656,-0.111816,128.112793,-124.816895,33.813477
136,-0.713867,-1.542480,-0.161621,114.990234,-98.144531,29.846191
137,-0.689941,-1.330078,-0.219238,100.952148,-45.654297,14.892578
138,-0.767578,-1.214844,-0.062988,112.426758,-38.391113,14.160156
139,-0.780762,-1.125977,-0.067871,114.624023,-22.460938,13.488770
140,-0.795898,-1.066406,-0.013184,125.976562,-16.296387,8.361816
141,-0.774902,-0.708984,0.402344,174.011230,-35.095215,-18.859863
142,-0.619141,-0.802246,0.201660,229.125977,-75.866699,-13.916016
143,-0.335938,-0.562988,0.002930,190.002441,-49.011230,-46.630859
144,-0.752930,-0.485352,0.318848,236.450195,-85.876465,-48.950195
145,-0.920898,-0.480469,0.244629,228.088379,-98.510742,-50.537109
146,-0.984375,-0.398438,-0.069336,191.345215,-56.457520,-59.326172
147,-0.867676,-0.124512,-0.455078,99.365234,105.041504,-43.273926
148,-0.763672,-0.127930,-0.434082,81.665039,176.635742,-18.005371
149,-0.645020,-0.129883,-0.252441,78.369141,194.274902,4.943848
150,-0.748047,-0.420410,0.084961,89.538574,188.354492,37.597656
151,-0.767090,-0.570312,0.247559,139.892578,197.082520,34.973145
152,-0.826660,-0.566895,0.645020,202.148438,193.969727,17.822266
153,-0.709473,-0.270996,0.981934,276.428223,140.014648,-21.789551
154,-0.607910,-0.185059,1.000488,287.780762,120.483398,-25.573730
155,-0.589844,-0.198730,1.303223,270.690918,91.369629,-23.559570
156,-0.537109,-0.395508,1.150879,139.343262,20.324707,-24.108887
157,-0.509766,-0.461914,0.865234,75.622559,14.343262,-23.742676
158,-0.493164,-0.425781,0.622070,25.146484,29.296875,-18.249512
159,-0.428223,-0.268555,0.578613,-12.084961,47.241211,-4.028320
160,-0.462402,-0.326660,0.412598,-42.236328,27.160645,12.145996
161,-0.500977,-0.443359,0.356445,-24.902344,5.310059,5.493164
162,-0.521484,-0.571777,0.378906,-17.639160,-15.686035,-14.892578
163,-0.495117,-0.542480,0.464844,-20.996094,-31.433105,-43.457031
164,-0.673340,-0.425293,0.530762,-19.897461,-51.086426,-83.557129
165,-0.746582,-0.459473,0.647461,-13.793945,-63.659668,-96.557617
166,-0.716309,-0.445801,0.752441,-9.399414,-86.547852,-108.215332
167,-0.615234,-0.598145,0.988770,36.193848,-138.488770,-101.745605
168,-0.822266,-0.909180,1.131348,77.209473,-149.902344,-116.088867
169,-0.436035,-0.598633,1.550293,86.425781,-153.259277,-128.784180
170,0.302734,-0.638184,1.666016,-6.408691,-79.345703,-53.955078
171,-0.020020,-0.905762,1.263672,-10.498047,2.929688,-18.310547
172,-0.317383,-0.807617,1.211426,5.126953,46.936035,-21.911621
173,-0.542969,-0.674316,0.958008,7.629395,71.533203,-35.339355
174,-1.068848,-0.995117,0.873535,57.312012,92.956543,-94.787598
175,-0.895996,-0.963379,1.290039,45.349121,13.000488,-105.224609
176,-0.553711,-1.070801,0.415039,44.799805,-55.297852,-63.537598
177,-0.393066,-1.191895,0.806152,85.632324,-55.236816,5.249023
178,-0.433594,-1.255859,0.714355,64.758301,-50.537109,1.953125
179,-0.463379,-1.312988,0.675781,48.156738,-45.532227,-21.118164
180,-0.421387,-1.274414,0.526367,41.809082,-44.189453,-83.801270
181,-0.364746,-1.154785,0.541992,38.696289,-51.696777,-106.628418
182,-0.325684,-1.032227,0.536621,36.071777,-70.251465,-120.605469
183,-0.361328,-0.875000,0.455566,42.968750,-112.731934,-130.920410
184,-0.425293,-0.810547,0.474121,48.522949,-121.154785,-142.395020
185,-0.389648,-0.660645,0.590820,46.508789,-119.995117,-160.644531
186,-0.283691,-0.460449,0.669922,40.710449,-118.103027,-167.297363
187,-0.126465,-0.321777,0.309570,49.499512,-83.374023,-109.130859
188,-0.159668,-0.382812,0.455566,57.189941,-44.921875,-88.012695
189,-0.181152,-0.371094,0.664551,59.570312,-34.362793,-81.604004
190,-0.190430,-0.209961,0.732910,51.208496,-33.874512,-106.018066
191,-0.081055,-0.077148,0.856445,30.822754,-34.667969,-107.421875
192,0.059082,0.167969,0.959473,-3.601074,-34.973145,-94.970703
193,0.142578,0.309082,0.734863,-51.025391,-27.160645,-30.151367
194,0.111328,0.236816,0.575195,-37.170410,-16.723633,4.028320
195,0.131348,0.135254,0.609863,-34.484863,-3.173828,32.043457
196,0.039551,-0.108398,0.706055,-28.808594,2.136230,43.823242
197,0.068848,-0.149902,0.747070,-23.071289,-6.530762,44.189453
198,0.139160,-0.167480,0.731934,4.638672,-41.320801,74.645996
199,0.151367,-0.171875,0.738281,0.732422,-52.185059,105.529785
200,0.135254,-0.198242,0.671387,-25.329590,-49.255371,137.023926
201,0.096191,-0.177246,0.472656,-101.928711,-10.803223,197.143555
202,0.060059,-0.192383,0.313477,-131.652832,16.235352,228.149414
203,-0.020508,-0.336426,0.154297,-144.958496,47.119141,251.464844
204,-0.152344,-0.578613,0.079590,-133.850098,73.486328,258.789062
205,-0.470703,-1.233398,0.089355,9.338379,67.687988,155.639648
206,-0.814453,-1.360352,0.500488,60.729980,56.823730,79.223633
207,-0.622070,-1.012207,0.915039,76.965332,38.757324,21.972656
208,-0.293457,-0.462402,1.303711,25.756836,-25.085449,30.273438
209,-0.226562,-0.455078,1.214844,-34.606934,-29.846191,46.813965
210,-0.188965,-0.599121,1.223633,-82.214355,-26.428223,55.114746
211,-0.224121,-0.923340,1.427246,-126.281738,-28.137207,40.710449
212,-0.199219,-1.274414,0.899902,-137.878418,-46.752930,-34.423828
213,-0.140625,-1.311035,0.670410,-84.533691,-31.433105,-65.673828
214,-0.115234,-1.359375,0.658203,-10.559082,-17.578125,-93.017578
215,-0.007324,-1.318359,1.155273,81.970215,-35.095215,-150.573730
216,0.035645,-1.176270,1.558105,82.824707,-75.317383,-161.865234
217,0.192383,-0.892090,1.575195,67.687988,-124.694824,-131.286621
218,0.366699,-0.799316,1.282715,19.104004,-122.192383,-66.284180
219,0.181641,-0.929688,0.639648,4.028320,-12.756348,30.883789
220,-0.046875,-0.942871,0.638184,13.061523,22.644043,40.405273
221,-0.178711,-0.884766,0.673340,26.184082,37.902832,39.062500
222,-0.317383,-0.798340,0.689453,23.498535,48.706055,30.761719
223,-0.381348,-0.772461,0.719238,19.165039,45.104980,27.709961
224,-0.411621,-0.733398,0.706543,14.282227,38.085938,24.108887
225,-0.363770,-0.606445,0.652832,-17.395020,36.376953,20.812988
226,-0.327637,-0.590332,0.594727,-39.001465,35.400391,22.277832
227,-0.317383,-0.639648,0.542480,-51.513672,26.794434,23.620605
228,-0.294434,-0.703125,0.461914,-33.935547,-2.075195,24.475098
229,-0.090820,-0.579102,0.450684,-24.841309,-4.333496,27.099609
230,-0.053223,-0.594727,0.506348,-31.921387,1.647949,30.334473
231,0.219727,-0.681152,0.414062,-30.151367,77.270508,2.075195
232,0.481445,-0.568848,0.747559,7.751465,146.606445,-13.977051
233,0.458984,-0.369141,1.371582,0.305176,158.569336,-5.004883
234,0.297852,-0.388184,0.916504,-29.968262,127.624512,19.104004
235,0.136719,-0.487793,0.407227,-37.597656,74.829102,46.020508
236,0.052246,-0.477539,0.262207,-24.841309,57.373047,50.048828
237,-0.016113,-0.475586,0.270996,-13.488770,42.541504,48.583984
238,-0.096680,-0.453613,0.299805,-6.591797,22.583008,46.997070
239,-0.266602,-0.447754,0.249023,3.845215,-17.761230,43.823242
240,-0.352051,-0.480957,0.228516,5.004883,-29.541016,34.179688
241,-0.430664,-0.521973,0.247559,5.981445,-39.184570,17.028809
242,-0.493164,-0.545898,0.276855,7.995605,-47.119141,-6.286621
243,-0.506836,-0.545898,0.334473,11.108398,-50.903320,-33.996582
244,-0.464355,-0.487305,0.524414,12.145996,-52.062988,-88.989258
245,-0.414551,-0.460449,0.670410,2.380371,-49.377441,-110.656738
246,-0.309570,-0.418457,0.875000,-18.249512,-47.729492,-122.863770
247,0.043945,-0.479004,1.372070,-94.787598,-57.617188,-117.980957
248,0.304199,-0.553223,1.545410,-137.145996,-46.813965,-106.567383
249,0.854004,-0.622559,1.564941,-153.503418,5.615234,-65.246582
250,1.094238,-0.884766,2.335938,-158.813477,112.854004,22.216797
251,-0.515137,-1.421875,1.146484,-163.818359,78.674316,88.256836
252,-0.833984,-1.186035,0.734375,-105.712891,41.015625,54.809570
253,-0.850586,-0.945801,0.511230,-49.865723,12.023926,23.132324
254,-0.686523,-0.707031,0.121094,30.578613,-37.109375,-37.963867
255,-0.684570,-0.760742,-0.010254,78.552246,-53.405762,-63.537598
256,-0.706055,-0.873535,0.061523,126.525879,-62.683105,-83.190918
257,-0.484863,-1.243164,0.847168,103.088379,-71.594238,-95.031738
258,-0.218750,-1.250977,1.127441,44.189453,-77.697754,-84.045410
259,0.030762,-1.375977,0.787598,-1.403809,-73.486328,-58.715820
260,0.176758,-1.468262,0.515137,0.671387,-53.100586,-42.175293
261,0.193848,-1.125488,0.475098,54.138184,-34.057617,-32.653809
262,0.184082,-0.967285,0.447266,58.959961,-27.526855,-41.442871
263,0.181152,-0.795410,0.308105,33.081055,-11.718750,-60.913086
264,0.185059,-0.767578,0.238770,22.521973,0.488281,-65.246582
265,0.189453,-0.761230,0.233887,12.451172,13.244629,-66.101074
266,0.191895,-0.791016,0.248047,4.333496,23.559570,-63.903809
267,0.221680,-0.812500,0.273926,-2.319336,32.836914,-58.044434
268,0.249023,-0.835938,0.384277,-16.662598,51.208496,-35.278320
269,0.216797,-0.820312,0.457520,-25.756836,57.128906,-23.681641
270,0.156738,-0.791992,0.541992,-34.362793,57.189941,-13.366699
271,0.020020,-0.669434,0.549805,-34.179688,36.071777,1.464844
272,-0.052734,-0.510742,0.591309,-24.963379,17.944336,9.033203
273,-0.173340,-0.422852,0.737305,-17.272949,-4.028320,15.136719
274,-0.221191,-0.379395,0.799805,-20.263672,-25.817871,15.625000
275,-0.221191,-0.383789,0.705566,-23.071289,-42.236328,14.526367
276,-0.117676,-0.413086,0.448242,-4.882812,-49.743652,7.202148
277,-0.056152,-0.396973,0.389160,7.568359,-42.541504,4.455566
278,-0.033203,-0.388672,0.397949,15.930176,-30.517578,2.807617
279,-0.040039,-0.408691,0.480957,21.301270,-8.422852,2.929688
280,-0.051270,-0.427734,0.512695,23.620605,-0.488281,5.310059
281,-0.074219,-0.450195,0.540527,27.282715,5.249023,11.535645
282,-0.103516,-0.532715,0.589844,33.264160,9.216309,29.113770
283,-0.103516,-0.570801,0.595703,33.630371,7.141113,36.682129
284,-0.093750,-0.624023,0.591797,33.203125,2.746582,42.114258
285,-0.023438,-0.709961,0.606445,32.104492,-1.342773,44.982910
286,0.018555,-0.768555,0.674805,28.625488,-0.793457,43.884277
287,0.100098,-0.926270,0.923340,6.347656,-5.004883,29.479980
288,0.159180,-0.937500,1.029297,-7.263184,-13.427734,18.127441
289,0.270508,-0.795410,1.203613,-31.982422,-32.775879,10.375977
290,0.246582,-0.751465,1.246094,-41.564941,-42.297363,13.793945
291,0.239258,-0.651855,1.284180,-40.344238,-54.199219,17.578125
292,0.287598,-0.673340,1.269043,-35.827637,-67.138672,17.578125
293,0.521973,-0.892090,0.717285,-12.695312,-43.457031,-4.516602
294,0.599609,-0.831543,0.527832,1.464844,-4.882812,-6.958008
295,0.517578,-0.854980,0.473145,21.484375,50.292969,-3.051758
296,0.224609,-1.140625,0.619629,34.118652,58.349609,-9.155273
297,0.160156,-1.275391,0.776855,40.710449,57.006836,-15.808105
298,0.071777,-1.376465,0.851562,40.039062,51.452637,-19.836426
299,0.043945,-1.214844,0.986328,59.509277,0.427246,10.742188
300,0.056152,-1.066406,0.832031,54.931641,-11.352539,44.006348
301,-0.036133,-1.025879,0.695312,39.550781,-10.498047,68.908691
302,-0.120117,-0.949219,0.578125,20.019531,-6.103516,80.139160
303,-0.298828,-0.851074,0.451172,-13.610840,0.305176,89.477539
304,-0.363281,-0.820801,0.431641,-23.864746,0.061035,89.538574
305,-0.500000,-0.862793,0.446777,-35.400391,-10.864258,82.214355
306,-0.526367,-0.848633,0.458984,-39.245605,-19.287109,74.096680
307,-0.551270,-0.849121,0.469727,-44.738770,-26.672363,64.392090
308,-0.543457,-0.848145,0.452637,-49.072266,-30.517578,52.795410
309,-0.479492,-0.845215,0.399414,-53.894043,-16.052246,27.709961
310,-0.428223,-0.866699,0.343750,-53.161621,3.601074,13.122559
311,-0.356934,-0.840332,0.310547,-42.297363,31.433105,-2.075195
312,-0.097656,-0.713379,0.426270,-7.812500,90.515137,-19.531250
313,0.093750,-0.702637,0.570801,7.324219,133.300781,-21.606445
314,0.195801,-0.700684,0.914062,20.568848,179.565430,-29.113770
315,0.154785,-0.444336,0.831055,11.718750,172.241211,-18.737793
316,0.139160,-0.382324,0.754395,8.117676,145.874023,-2.624512
317,0.129395,-0.364746,0.697266,6.103516,110.534668,15.197754
318,0.098633,-0.365723,0.616699,8.300781,42.541504,41.381836
319,-0.005371,-0.358398,0.466797,8.789062,18.920898,48.278809
320,-0.071777,-0.371582,0.438965,2.441406,-0.244141,52.185059
321,-0.234375,-0.464355,0.382812,-21.423340,-30.334473,46.875000
322,-0.325684,-0.537598,0.330566,-27.404785,-42.846680,33.142090
323,-0.402344,-0.585449,0.263672,-22.216797,-51.757812,12.695312
324,-0.461914,-0.615723,0.238770,-6.774902,-55.297852,-12.145996
325,-0.501465,-0.583008,0.375000,19.592285,-54.931641,-62.988281
326,-0.450195,-0.568359,0.481445,21.545410,-55.053711,-83.862305
327,-0.441895,-0.585449,0.559082,15.808105,-54.809570,-101.928711
328,-0.348145,-0.642090,0.818848,-13.183594,-52.124023,-122.009277
329,-0.203125,-0.692383,0.895996,-28.625488,-48.095703,-120.666504
330,0.030762,-0.718750,1.031738,-31.921387,-38.635254,-107.482910
331,0.787109,-0.658691,1.947754,-70.129395,7.141113,-46.386719
332,0.972168,-0.954590,2.354492,-143.432617,40.893555,1.586914
333,0.572754,-1.158203,1.520508,-166.992188,35.217285,32.470703
334,-0.520996,-1.035645,0.481934,-57.922363,14.953613,38.391113
335,-0.580078,-0.921387,0.244629,2.746582,13.977051,9.887695
336,-0.567871,-0.815430,0.224609,43.762207,10.192871,-11.779785
337,-0.600098,-0.908691,0.314453,83.801270,-15.258789,-21.728516
338,-0.589844,-1.123535,0.414062,93.261719,-23.010254,-18.615723
339,-0.519531,-1.341309,0.554199,100.036621,-9.765625,-17.028809
340,-0.375000,-1.407227,0.898438,14.709473,-10.559082,-5.310059
341,-0.308105,-1.360352,0.638184,-16.601562,-21.972656,-5.615234
342,-0.240723,-1.229980,0.433594,-11.657715,-37.841797,-12.756348
343,-0.189941,-1.116699,0.300293,10.314941,-49.743652,-25.939941
344,-0.067383,-0.868652,0.265137,42.358398,-49.011230,-54.321289
345,-0.007812,-0.778320,0.285156,39.733887,-40.771484,-64.819336
346,0.043457,-0.777344,0.210938,29.602051,-14.038086,-82.153320
347,0.049805,-0.831055,0.223145,36.743164,0.122070,-88.500977
348,0.065430,-0.886719,0.295410,47.363281,11.779785,-90.820312
349,0.108398,-0.910156,0.389648,51.879883,21.789551,-88.439941
350,0.205566,-0.841797,0.580078,10.864258,43.273926,-61.584473
351,0.228027,-0.815430,0.591309,-19.042969,49.865723,-38.452148
352,0.158203,-0.620605,0.642578,-54.077148,41.259766,-2.258301
353,0.109863,-0.476074,0.709961,-67.871094,26.184082,8.239746
354,0.033203,-0.423828,0.649414,-79.223633,10.681152,14.038086
355,-0.060547,-0.441406,0.476074,-52.734375,-11.779785,10.986328
356,-0.038574,-0.401367,0.481445,-27.954102,-23.254395,7.751465
357,-0.006836,-0.389160,0.477539,-14.404297,-29.663086,4.272461
358,0.019531,-0.401855,0.469727,-10.253906,-29.052734,-0.061035
359,0.030273,-0.415527,0.539062,-4.150391,-26.123047,-7.141113
360,0.002930,-0.394531,0.546875,8.239746,-20.019531,5.432129
361,-0.041504,-0.456055,0.579102,19.165039,-16.479492,16.113281
362,-0.075195,-0.520508,0.623535,28.808594,-13.916016,23.864746
363,-0.082031,-0.583984,0.639648,35.888672,-10.986328,29.541016
364,-0.061523,-0.681641,0.653320,42.053223,-4.699707,37.902832
365,-0.040039,-0.738281,0.645020,41.992188,-4.577637,38.696289
366,0.009277,-0.790039,0.647461,39.672852,-4.577637,37.048340
367,0.105469,-0.908203,0.701172,23.864746,-0.915527,28.259277
368,0.142090,-0.923340,0.754883,15.197754,1.037598,21.057129
369,0.173340,-0.890137,0.858887,7.507324,0.915527,14.648438
370,0.150391,-0.714844,1.147949,-10.314941,-12.145996,13.000488
371,0.080078,-0.660156,1.281250,-17.822266,-25.390625,16.662598
372,0.067383,-0.642090,1.361816,-18.005371,-42.480469,19.042969
373,0.320801,-0.748535,1.008789,19.714355,-54.382324,1.953125
374,0.464844,-0.692383,0.844238,31.860352,-26.367188,3.356934
375,0.460938,-0.713379,0.763184,38.574219,-0.732422,12.207031
376,0.264648,-0.881348,0.741699,42.297363,18.310547,24.169922
377,0.199219,-1.075684,0.707520,49.133301,19.897461,23.254395
378,0.181152,-1.242676,0.788574,56.213379,20.202637,15.625000
379,0.064453,-1.455078,0.993652,49.438477,14.587402,-1.159668
380,0.045898,-1.395508,1.102539,60.180664,-12.756348,-0.610352
381,0.102051,-1.152832,0.937988,59.265137,-27.648926,14.831543
382,0.023438,-1.000000,0.648926,29.968262,-15.319824,44.189453
383,-0.046875,-0.929199,0.550293,10.742188,-1.159668,48.461914
384,-0.122559,-0.858887,0.493164,-2.929688,5.310059,56.091309
385,-0.257324,-0.817383,0.385254,-20.446777,2.685547,80.505371
386,-0.357910,-0.851074,0.380859,-24.780273,-2.868652,91.430664
387,-0.455566,-0.897461,0.392090,-31.127930,-10.986328,95.581055
388,-0.534668,-0.942383,0.407715,-39.611816,-18.615723,91.064453
389,-0.533203,-0.893555,0.389160,-59.204102,-27.404785,70.556641
390,-0.513672,-0.893555,0.361328,-62.988281,-25.146484,59.082031
391,-0.489746,-0.878418,0.356445,-66.345215,-17.639160,43.701172
392,-0.390137,-0.794434,0.277344,-67.443848,8.422852,5.310059
393,-0.286621,-0.725586,0.221191,-50.292969,26.855469,-15.014648
394,-0.002930,-0.585449,0.207520,0.305176,78.063965,-38.879395
395,0.134766,-0.574707,0.388184,32.226562,125.000000,-42.541504
396,0.262207,-0.493164,0.907715,40.283203,161.560059,-45.349121
397,0.289062,-0.413086,0.947266,21.728516,169.738770,-39.611816
398,0.280762,-0.307617,0.837402,-14.587402,149.780273,-8.605957
399,0.258301,-0.312988,0.814941,-31.127930,115.173340,14.465332
400,0.183594,-0.368652,0.720215,-35.888672,73.974609,33.020020
401,-0.017578,-0.437500,0.473145,-19.104004,18.127441,39.123535
402,-0.092773,-0.445312,0.427734,-8.728027,0.122070,38.330078
403,-0.186035,-0.485840,0.405762,-2.624512,-15.014648,35.095215
404,-0.423828,-0.596191,0.316406,4.577637,-30.578613,6.652832
405,-0.516602,-0.627441,0.303711,10.437012,-29.541016,-20.935059
406,-0.570801,-0.627441,0.323242,15.380859,-23.193359,-50.720215
407,-0.582520,-0.609375,0.392578,17.639160,-16.784668,-78.430176
408,-0.513672,-0.594238,0.587402,13.122559,-18.127441,-108.032227
409,-0.440430,-0.600098,0.684570,5.859375,-18.676758,-111.877441
410,-0.119141,-0.550781,1.166016,-32.653809,-19.897461,-90.881348
411,0.157715,-0.458984,1.585449,-72.875977,-28.930664,-68.237305
412,0.489258,-0.423828,2.073242,-147.583008,-40.100098,-32.470703
413,0.671875,-0.765625,2.142578,-247.619629,-47.180176,8.361816
414,0.321777,-1.347168,0.590820,-194.030762,-10.009766,28.259277
415,-0.111816,-1.093262,0.392578,-78.674316,23.925781,26.611328
416,-0.434082,-1.043457,0.304688,6.591797,21.667480,-4.577637
417,-0.408203,-0.771973,0.254395,98.876953,-14.831543,-82.458496
418,-0.341797,-0.756348,0.249023,127.563477,-33.569336,-97.167969
419,-0.326172,-0.905273,0.329590,145.935059,-40.161133,-100.769043
420,-0.069824,-1.256348,0.676270,155.822754,3.173828,-47.790527
421,-0.081055,-1.406738,1.068848,99.426270,27.587891,1.647949
422,-0.194336,-1.526855,1.033203,11.108398,40.100098,39.245605
423,-0.327148,-1.531738,0.731445,-34.240723,26.977539,48.156738
424,-0.341309,-1.322266,0.282227,-3.112793,-14.648438,19.653320
425,-0.288086,-1.165527,0.234863,16.296387,-28.198242,-5.371094
426,-0.212402,-1.003906,0.219727,20.080566,-34.912109,-30.517578
427,-0.093262,-0.906738,0.154297,0.793457,-31.494141,-66.711426
428,-0.072266,-0.941895,0.142578,4.089355,-26.794434,-78.735352
429,-0.041992,-0.990234,0.181641,18.432617,-24.047852,-82.641602
430,0.068359,-0.992188,0.317871,51.513672,-4.577637,-71.533203
431,0.118164,-0.891602,0.429199,45.227051,15.136719,-55.786133
432,0.093750,-0.786621,0.476074,-16.296387,57.556152,-33.569336
433,0.075195,-0.642090,0.476074,-37.048340,70.983887,-28.991699
434,0.036621,-0.453125,0.702148,-54.504395,76.904297,-25.878906
435,-0.028809,-0.386719,0.704102,-104.431152,59.997559,-12.695312
436,-0.079102,-0.441895,0.625000,-84.106445,47.607422,-9.033203
437,-0.063965,-0.308105,0.681641,-21.667480,-3.784180,-0.183105
438,-0.044922,-0.275391,0.740723,-12.207031,-29.541016,3.845215
439,-0.025879,-0.289062,0.700684,-10.559082,-54.931641,5.920410
440,0.019043,-0.289062,0.586426,-2.807617,-72.265625,8.666992
441,0.045410,-0.315918,0.472168,24.658203,-76.782227,26.306152
442,0.022461,-0.379883,0.458008,40.466309,-69.885254,34.484863
443,0.000000,-0.461914,0.480957,51.269531,-58.166504,38.513184
444,-0.006836,-0.585938,0.494141,55.114746,-29.296875,31.433105
445,0.015137,-0.615723,0.480957,50.109863,-9.216309,28.808594
446,0.020020,-0.674316,0.496582,41.381836,8.178711,30.212402
447,-0.010254,-0.864258,0.529297,29.785156,27.099609,32.470703
448,-0.004395,-0.904297,0.620605,22.216797,26.428223,31.127930
449,-0.006348,-0.947754,0.685059,11.779785,20.935059,31.494141
450,0.004883,-0.956543,0.918945,-8.178711,14.099121,13.366699
451,-0.020020,-0.861816,1.107422,-16.967773,5.004883,5.737305
452,-0.015625,-0.783203,1.370117,-20.446777,-14.587402,-1.098633
453,0.051270,-0.772461,1.625977,-32.531738,-49.682617,-10.742188
454,0.534180,-0.950684,0.799805,-13.671875,-63.354492,-29.724121
455,0.628906,-0.890625,0.637695,10.253906,-31.005859,-16.540527
456,0.498535,-0.941406,0.706055,47.119141,5.187988,16.296387
457,0.330566,-1.207031,0.850586,47.058105,8.300781,15.747070
458,0.236816,-1.425781,0.924805,37.048340,9.277344,4.882812
459,0.119141,-1.506348,1.012695,34.362793,5.920410,-5.065918
460,0.071777,-1.125000,0.945312,50.048828,-21.850586,35.949707
461,0.014648,-1.057617,0.751465,39.672852,-18.127441,65.002441
462,-0.056152,-1.015625,0.594238,21.179199,-5.187988,79.833984
463,-0.138672,-0.955078,0.484375,0.915527,10.620117,89.599609
464,-0.359375,-0.892578,0.395996,-27.404785,18.798828,111.145020
465,-0.468750,-0.936035,0.374512,-32.897949,10.864258,116.149902
466,-0.664551,-1.009766,0.379395,-36.743164,-14.526367,100.036621
467,-0.691895,-0.962402,0.388184,-42.114258,-30.334473,86.730957
468,-0.691406,-0.940430,0.350098,-48.034668,-44.677734,74.829102
469,-0.664551,-0.914551,0.282227,-53.771973,-48.828125,57.922363
470,-0.550293,-0.843750,0.167480,-64.453125,-22.155762,24.414062
471,-0.439453,-0.817383,0.084473,-59.936523,5.981445,7.019043
472,-0.354980,-0.748047,0.057617,-44.250488,38.452148,-6.469727
473,-0.070312,-0.644043,0.205566,4.089355,98.205566,-18.005371
474,0.113770,-0.651855,0.471680,20.202637,146.545410,-10.742188
475,0.235840,-0.672852,1.016602,23.925781,174.438477,-6.286621
476,0.243652,-0.515137,0.907715,-2.990723,171.630859,6.896973
477,0.240723,-0.458008,0.894531,-24.414062,147.155762,18.615723
478,0.193359,-0.439941,0.773438,-38.879395,111.755371,31.188965
479,0.158691,-0.421875,0.639160,-38.024902,72.998047,41.870117
480,0.017090,-0.412109,0.422852,-19.409180,14.770508,56.274414
481,-0.082520,-0.435547,0.363281,-12.756348,-2.990723,55.664062
482,-0.267578,-0.485352,0.249023,-8.850098,-25.146484,35.156250
483,-0.363770,-0.515137,0.215820,-6.469727,-34.301758,16.723633
484,-0.459961,-0.515137,0.174316,2.990723,-44.006348,-5.920410
485,-0.528809,-0.497559,0.193359,22.338867,-51.696777,-28.747559
486,-0.630859,-0.528809,0.458496,39.916992,-53.466797,-82.153320
487,-0.541504,-0.509277,0.642090,20.812988,-54.138184,-107.360840
488,-0.491699,-0.573242,0.680664,-4.638672,-55.480957,-124.450684
489,-0.279297,-0.730957,0.857422,-44.067383,-53.955078,-140.014648
490,-0.075195,-0.812988,1.040527,-55.236816,-52.062988,-135.559082
491,0.331055,-0.851074,1.333984,-60.974121,-46.752930,-117.431641
492,1.151367,-1.107910,2.203613,-91.247559,19.165039,-5.798340
493,0.474609,-1.202637,1.632812,-136.535645,12.023926,53.649902
494,-0.198242,-1.166992,0.774414,-119.689941,-16.967773,67.382812
495,-0.585938,-0.937988,0.178711,9.216309,-15.686035,18.798828
496,-0.624512,-0.874023,0.159668,54.077148,-11.657715,3.112793
497,-0.719238,-1.093750,0.261719,97.656250,-8.117676,-5.065918
498,-0.681152,-1.328125,0.431641,88.195801,5.859375,-5.187988
499,-0.576172,-1.490723,0.591797,78.552246,27.160645,-4.028320
500,-0.461914,-1.500488,0.736816,4.150391,1.953125,-8.605957
501,-0.317383,-1.320801,0.550781,-24.414062,-23.925781,-17.883301
502,-0.220703,-1.190918,0.335449,-25.817871,-49.194336,-23.010254
503,-0.165039,-1.080078,0.184082,-7.568359,-66.284180,-33.325195
504,-0.056152,-0.864746,0.090820,35.522461,-75.744629,-48.828125
505,-0.011719,-0.803711,0.110352,43.518066,-69.152832,-56.762695
506,0.009277,-0.790527,0.141113,40.405273,-55.541992,-65.673828
507,0.013672,-0.941406,0.129883,32.348633,-28.442383,-87.646484
508,0.031738,-1.007324,0.134766,42.846680,-13.427734,-99.487305
509,0.081055,-1.022949,0.244141,53.039551,0.610352,-104.309082
510,0.234863,-0.902832,0.454102,29.296875,28.991699,-83.190918
511,0.289062,-0.806641,0.533203,-10.498047,42.785645,-62.927246
512,0.335449,-0.572266,0.589844,-79.467773,48.400879,-16.052246
513,0.287598,-0.486816,0.668457,-95.886230,34.362793,5.249023
514,0.204590,-0.456055,0.610352,-100.097656,16.052246,18.005371
515,-0.001953,-0.490234,0.426758,-66.406250,-7.873535,20.874023
516,-0.052246,-0.463379,0.431641,-35.095215,-19.592285,13.000488
517,-0.055176,-0.408691,0.440918,-10.070801,-31.982422,4.821777
518,-0.044922,-0.394531,0.457520,4.516602,-40.405273,-2.929688
519,-0.002930,-0.401367,0.577637,13.366699,-51.147461,-10.620117
520,0.020020,-0.370117,0.543945,14.160156,-50.109863,-6.408691
521,-0.024414,-0.461426,0.516602,20.629883,-31.311035,20.874023
522,-0.064453,-0.564453,0.527344,27.954102,-22.521973,30.822754
523,-0.078613,-0.616211,0.546387,34.606934,-15.441895,36.132812
524,-0.064941,-0.685547,0.566895,38.146973,-9.582520,39.550781
525,0.004395,-0.838867,0.588379,33.874512,-5.737305,42.480469
526,0.049805,-0.888184,0.584473,27.954102,-4.577637,43.701172
527,0.081543,-0.938477,0.572754,20.507812,-4.028320,45.532227
528,0.114746,-1.043457,0.633301,10.864258,-1.647949,43.029785
529,0.140625,-1.062988,0.710938,10.070801,-2.624512,35.583496
530,0.189453,-1.011230,0.821289,12.268066,-5.737305,23.681641
531,0.247070,-0.885254,1.004883,8.361816,-13.244629,16.357422
532,0.276855,-0.822266,1.135742,-9.033203,-40.771484,16.784668
533,0.317383,-0.888184,1.168457,-6.103516,-59.204102,11.352539
534,0.450195,-0.924316,0.918945,5.432129,-68.664551,-0.061035
535,0.579102,-0.901367,0.661133,16.235352,-46.630859,-5.859375
536,0.496582,-1.066406,0.586914,35.949707,8.544922,1.586914
537,0.386719,-1.257324,0.667480,37.414551,24.658203,-1.464844
538,0.313965,-1.394531,0.731445,29.663086,35.644531,-8.483887
539,0.133301,-1.409180,0.830566,32.714844,33.142090,7.080078
540,0.070801,-1.292969,0.851562,38.452148,18.127441,32.775879
541,0.012695,-1.167969,0.771973,37.170410,1.708984,60.852051
542,-0.053223,-1.082031,0.642090,28.747559,-9.277344,78.674316
543,-0.120117,-0.962891,0.540039,16.601562,-15.502930,86.853027
544,-0.230957,-0.800293,0.384766,-13.122559,-26.916504,95.458984
545,-0.301758,-0.801758,0.330566,-23.376465,-30.700684,97.717285
546,-0.372070,-0.834473,0.308594,-32.165527,-34.790039,97.290039
547,-0.522949,-0.966797,0.304688,-38.879395,-42.419434,84.777832
548,-0.579590,-0.994141,0.330078,-43.640137,-45.104980,76.965332
549,-0.596191,-1.001953,0.333984,-51.574707,-47.363281,67.932129
550,-0.570801,-0.987793,0.280762,-60.180664,-43.212891,58.410645
551,-0.463867,-0.939941,0.147461,-63.232422,-1.770020,31.738281
552,-0.400391,-0.855469,0.172363,-54.443359,28.381348,16.296387
553,-0.178223,-0.709473,0.226074,-23.986816,80.078125,-8.178711
554,0.021973,-0.689941,0.283203,-3.356934,116.333008,-9.399414
555,0.208984,-0.754883,0.495605,31.005859,159.606934,-11.352539
556,0.287598,-0.668457,0.803711,60.546875,195.190430,-14.587402
557,0.177246,-0.344238,0.793457,11.962891,159.973145,11.291504
558,0.131348,-0.335449,0.660645,-8.544922,122.009277,27.954102
559,0.074707,-0.359375,0.557129,-15.319824,81.054688,40.100098
560,-0.060547,-0.436035,0.400391,-0.732422,6.835938,44.555664
561,-0.107910,-0.468262,0.373535,3.173828,-18.981934,38.513184
562,-0.151855,-0.479980,0.376953,-16.479492,-49.743652,22.277832
563,-0.270508,-0.547363,0.274414,-23.681641,-58.593750,10.559082
564,-0.342285,-0.616211,0.201172,-21.057129,-61.035156,-5.554199
565,-0.420410,-0.676758,0.211426,-10.253906,-60.607910,-26.916504
566,-0.497559,-0.714355,0.444336,8.544922,-67.199707,-76.660156
567,-0.449219,-0.704590,0.547852,10.681152,-71.411133,-98.205566
568,-0.396484,-0.710938,0.650879,3.173828,-65.795898,-115.844727
569,-0.160645,-0.770996,0.991699,-36.804199,-47.180176,-128.051758
570,0.057617,-0.853027,1.082031,-50.781250,-37.109375,-115.234375
571,0.758789,-0.964355,1.560059,-37.048340,1.403809,-76.904297
572,1.101562,-1.012207,2.110840,-71.655273,48.156738,-27.404785
573,0.656250,-1.151855,1.656250,-123.840332,37.231445,23.193359
574,0.177246,-1.040039,0.902832,-121.276855,2.136230,52.734375
575,-0.511719,-0.949707,0.076660,-28.198242,6.835938,41.992188
576,-0.583496,-0.924805,0.052246,17.333984,19.287109,22.705078
577,-0.723633,-1.059570,0.267578,70.983887,2.197266,-25.634766
578,-0.685547,-1.155762,0.363770,86.608887,-21.362305,-53.161621
579,-0.557617,-1.251465,0.399414,90.515137,-33.874512,-67.016602
580,-0.374512,-1.374023,0.427246,89.843750,-23.437500,-65.856934
581,-0.181641,-1.444824,0.799805,15.563965,-0.793457,-17.517090
582,-0.089844,-1.344238,0.543945,-25.085449,-5.065918,-8.178711
583,-0.092773,-1.235352,0.280273,-22.949219,-15.991211,-7.202148
584,-0.053223,-0.842773,0.141113,27.343750,-32.409668,-22.277832
585,-0.008789,-0.678223,0.142090,39.550781,-30.517578,-40.283203
586,0.018555,-0.663574,0.175293,35.949707,-22.399902,-49.316406
587,-0.011719,-0.864258,0.132324,36.926270,-6.530762,-77.026367
588,-0.004883,-0.948730,0.179199,49.377441,0.183105,-92.468262
589,0.056641,-0.971191,0.312012,54.809570,6.042480,-97.473145
590,0.223145,-0.954102,0.494141,10.192871,25.939941,-63.232422
591,0.261719,-0.988281,0.460938,-21.728516,39.978027,-35.095215
592,0.255371,-0.946777,0.394531,-40.527344,54.077148,-13.122559
593,0.113770,-0.724609,0.394043,-58.654785,58.776855,3.601074
594,0.082031,-0.583008,0.413086,-59.631348,49.682617,4.089355
595,0.078613,-0.442871,0.530762,-57.983398,34.667969,5.920410
596,0.061523,-0.379395,0.543457,-61.035156,14.648438,10.620117
597,0.026367,-0.403320,0.451172,-55.419922,-1.953125,16.296387
598,-0.028809,-0.478027,0.471680,-28.076172,-29.602051,14.404297
599,-0.000977,-0.482422,0.456543,-16.601562,-38.940430,11.901855
600,0.036621,-0.486328,0.456055,-11.352539,-40.527344,10.070801
601,0.057617,-0.531250,0.481934,-2.990723,-33.020020,5.371094
602,0.060059,-0.521973,0.518066,7.385254,-31.311035,8.239746
603,0.037598,-0.520508,0.555664,20.141602,-29.418945,16.906738
604,-0.063477,-0.648438,0.673828,32.348633,-20.629883,37.170410
605,-0.095703,-0.741699,0.660156,30.212402,-14.099121,43.457031
606,-0.099609,-0.823242,0.602051,31.616211,-4.455566,43.762207
607,-0.061523,-0.854492,0.624023,36.010742,4.821777,39.184570
608,0.009766,-0.897461,0.662109,36.437988,10.253906,33.203125
609,0.129395,-1.004395,0.762207,21.789551,12.695312,12.145996
610,0.235352,-1.006836,0.804688,12.512207,10.620117,0.000000
611,0.391602,-0.894043,0.860840,-2.197266,5.554199,-7.446289
612,0.363281,-0.838379,0.898926,-4.028320,-2.746582,-0.854492
613,0.355469,-0.812012,0.979980,1.953125,-17.456055,5.676270
614,0.419922,-0.982422,1.003418,3.601074,-70.800781,-10.559082
615,0.568848,-0.948730,0.591309,4.760742,-58.532715,-21.728516
616,0.627930,-0.868652,0.432129,14.587402,-23.254395,-13.610840
617,0.365234,-1.115234,0.499023,26.123047,26.733398,5.187988
618,0.278809,-1.252441,0.562500,28.564453,34.545898,1.831055
619,0.203125,-1.354980,0.638184,31.433105,34.423828,-1.953125
620,0.113770,-1.393066,0.722656,38.452148,24.902344,1.831055
621,0.022461,-1.254395,0.833984,73.181152,-22.216797,36.804199
622,-0.005371,-1.155273,0.766602,66.467285,-35.949707,60.852051
623,-0.040527,-1.086914,0.625977,41.259766,-30.029297,78.430176
624,-0.124023,-1.049316,0.508789,10.986328,-14.953613,87.463379
625,-0.287109,-0.921387,0.377441,-34.729004,9.887695,94.482422
626,-0.374023,-0.880371,0.349609,-45.654297,11.474609,98.815918
627,-0.464844,-0.880859,0.324707,-48.278809,4.699707,99.853516
628,-0.608887,-0.886719,0.307129,-46.875000,-18.493652,91.003418
629,-0.674316,-0.894531,0.300781,-52.429199,-26.733398,80.566406
630,-0.682129,-0.876953,0.296387,-65.002441,-30.822754,66.101074
631,-0.696289,-0.907227,0.215332,-72.692871,-28.686523,49.682617
632,-0.658691,-0.924316,0.126953,-71.838379,-14.343262,27.832031
633,-0.446289,-0.821289,0.130859,-40.527344,38.208008,-10.742188
634,-0.334961,-0.742188,0.219727,-18.066406,59.570312,-19.165039
635,0.016113,-0.680664,0.480957,-3.723145,96.862793,-17.944336
636,0.335938,-0.821777,0.607422,17.761230,133.666992,-8.361816
637,0.429688,-0.749512,0.935547,46.142578,173.034668,-1.831055
638,0.344238,-0.513184,1.015137,22.094727,171.508789,12.695312
639,0.248535,-0.472168,0.687500,-21.972656,111.450195,49.926758
640,0.175781,-0.495605,0.552734,-23.193359,76.904297,58.044434
641,0.013672,-0.487793,0.370605,-5.493164,19.653320,67.382812
642,-0.115234,-0.546875,0.268555,4.577637,4.699707,64.697266
643,-0.226562,-0.619141,0.199219,7.812500,-1.342773,51.635742
644,-0.312012,-0.645020,0.161133,5.554199,-3.356934,32.470703
645,-0.422852,-0.582031,0.227051,-1.403809,-16.967773,-4.211426
646,-0.451660,-0.541504,0.257324,-2.563477,-32.653809,-18.676758
647,-0.479980,-0.558594,0.273926,-0.183105,-47.241211,-33.691406
648,-0.500488,-0.576660,0.277832,3.479004,-56.518555,-52.246094
649,-0.497070,-0.617188,0.422852,11.962891,-49.194336,-94.482422
650,-0.459473,-0.638672,0.585938,4.699707,-40.161133,-113.159180
651,-0.388672,-0.692383,0.736816,-14.282227,-30.151367,-128.051758
652,-0.249023,-0.752930,0.855469,-41.687012,-18.310547,-129.089355
653,0.386230,-0.833008,1.297363,-39.367676,-12.817383,-114.624023
654,0.958984,-0.764648,1.863770,-42.724609,0.183105,-83.129883
655,1.178223,-0.934570,2.454590,-108.642578,18.676758,-13.366699
656,-0.018555,-1.375977,0.677734,-159.179688,-39.733887,52.673340
657,-0.458008,-1.317871,0.113281,-87.097168,-27.648926,37.719727
658,-0.563477,-1.057617,-0.042480,-15.441895,-8.056641,12.084961
659,-0.626953,-0.870605,0.131836,56.091309,-3.662109,-30.029297
660,-0.616211,-0.954102,0.108398,78.979492,-18.615723,-48.461914
661,-0.559082,-1.076660,0.194824,99.548340,-26.000977,-63.171387
662,-0.322266,-1.381836,0.431152,104.980469,-10.192871,-54.809570
663,-0.241211,-1.437988,0.756836,75.317383,7.690430,-24.658203
664,-0.220703,-1.466309,0.666992,20.202637,12.512207,0.854492
665,-0.196289,-1.247559,0.258301,-3.662109,1.647949,2.075195
666,-0.161621,-1.078613,0.189453,11.352539,-10.925293,-8.850098
667,-0.129395,-0.935059,0.126465,26.245117,-22.583008,-20.019531
668,-0.071289,-0.756836,0.090820,32.592773,-24.658203,-45.593262
669,-0.049316,-0.766113,0.107910,28.076172,-20.019531,-57.739258
670,-0.053223,-0.843750,0.102051,27.832031,-15.625000,-72.448730
671,0.011230,-0.970703,0.171875,45.471191,-7.812500,-93.505859
672,0.075195,-0.983398,0.309570,50.903320,-1.647949,-89.477539
673,0.196777,-0.981934,0.407715,21.057129,20.935059,-53.161621
674,0.216309,-0.949219,0.420410,-1.342773,40.161133,-30.029297
675,0.174805,-0.835938,0.451172,-26.428223,55.480957,-11.657715
676,0.070312,-0.537598,0.724121,-67.565918,54.687500,6.530762
677,0.031738,-0.467773,0.753418,-94.177246,38.574219,12.939453
678,-0.004395,-0.511719,0.613770,-97.900391,20.324707,17.333984
679,-0.020508,-0.538086,0.518066,-74.584961,4.028320,15.258789
680,0.016602,-0.464355,0.567871,-28.991699,-30.090332,6.713867
681,0.057617,-0.442871,0.589355,-21.301270,-43.151855,4.760742
682,0.083496,-0.427246,0.553223,-6.896973,-61.462402,7.263184
683,0.076172,-0.428711,0.522949,5.371094,-63.659668,16.174316
684,0.033691,-0.469727,0.513184,19.042969,-62.500000,24.780273
685,-0.009766,-0.524414,0.519043,29.846191,-58.776855,29.479980
686,-0.028320,-0.654297,0.452637,46.508789,-40.100098,27.832031
687,0.002441,-0.698242,0.401367,52.185059,-21.911621,23.254395
688,0.034668,-0.725098,0.377441,54.504395,0.122070,19.592285
689,0.045410,-0.820312,0.411621,45.776367,35.583496,17.700195
690,0.032227,-0.881348,0.468262,37.353516,40.283203,22.399902
691,0.020020,-0.952637,0.533203,27.221680,34.729004,29.541016
692,0.062500,-1.089355,0.652832,7.751465,9.643555,33.203125
693,0.102051,-1.083008,0.780273,-0.854492,-0.305176,21.301270
694,0.125977,-0.972168,0.945801,-14.648438,-10.742188,11.535645
695,0.118652,-1.043945,1.444336,-35.034180,-68.725586,-5.615234
696,0.364258,-1.106934,1.037598,-52.551270,-85.754395,-24.169922
697,0.595215,-1.154785,0.593750,-44.372559,-54.626465,-27.648926
698,0.650391,-1.210938,0.485352,5.676270,5.310059,-6.774902
699,0.466309,-1.421875,0.591309,21.240234,19.226074,-3.417969
700,0.333008,-1.509766,0.716797,31.921387,21.423340,-8.728027
701,0.231445,-1.430176,0.789551,45.654297,15.197754,-4.394531
702,0.053223,-1.070312,0.713379,49.865723,5.065918,53.833008
703,-0.071777,-1.032715,0.589355,41.442871,11.291504,86.303711
704,-0.199219,-1.030762,0.497559,31.555176,16.540527,103.210449
705,-0.412598,-0.984375,0.365723,1.037598,21.484375,99.548340
706,-0.471191,-0.930664,0.318359,-12.329102,17.089844,88.073730
707,-0.506836,-0.908203,0.272949,-13.305664,-9.094238,69.274902
708,-0.504883,-0.852051,0.265137,-8.056641,-27.343750,66.589355
709,-0.529785,-0.855469,0.322754,-11.047363,-43.212891,66.345215
710,-0.565430,-0.879883,0.340820,-24.658203,-56.518555,66.772461
711,-0.609375,-0.998047,0.253906,-57.983398,-59.326172,50.170898
712,-0.566406,-1.000977,0.137695,-61.828613,-43.579102,37.109375
713,-0.473633,-0.937500,0.090332,-52.978516,-13.000488,25.390625
714,-0.268066,-0.778320,0.207520,-25.878906,60.363770,11.901855
715,-0.103027,-0.799805,0.373047,-15.625000,98.815918,9.765625
716,0.176270,-0.898438,0.574219,10.253906,144.104004,9.643555
717,0.205078,-0.529785,1.013672,20.935059,189.392090,16.540527
718,0.181641,-0.431152,0.796387,-4.150391,159.973145,32.775879
719,0.150391,-0.408691,0.602539,-14.343262,127.197266,46.875000
720,0.113281,-0.414062,0.502441,-9.277344,91.613770,55.480957
721,-0.006836,-0.476562,0.353027,3.845215,23.193359,59.875488
722,-0.106934,-0.500488,0.261230,1.281738,4.760742,53.222656
723,-0.243164,-0.516602,0.178223,-17.028809,-20.202637,24.047852
724,-0.301270,-0.511719,0.145508,-22.583008,-32.104492,7.690430
725,-0.340820,-0.503418,0.147461,-19.470215,-44.677734,-6.958008
726,-0.378906,-0.516602,0.187988,-11.108398,-58.166504,-21.179199
727,-0.483398,-0.586426,0.266602,15.991211,-78.247070,-60.424805
728,-0.508789,-0.606934,0.377441,23.803711,-80.017090,-84.167480
729,-0.480957,-0.624023,0.546875,18.310547,-76.660156,-103.149414
730,-0.382812,-0.781738,0.850098,-36.682129,-50.109863,-121.398926
731,-0.198730,-0.933105,0.957520,-63.232422,-30.029297,-120.605469
732,0.149902,-1.104980,1.201660,-66.894531,-3.601074,-113.891602
733,1.042969,-1.265625,2.390625,-56.640625,95.153809,-18.005371
734,0.255371,-1.195801,1.718750,-99.487305,46.875000,40.954590
735,-0.363770,-1.104492,0.882812,-82.580566,-10.131836,56.274414
736,-0.682129,-0.840332,0.195801,-3.540039,-56.518555,18.005371
737,-0.612305,-0.780762,0.043457,50.476074,-46.264648,-35.339355
738,-0.623047,-0.892578,0.180176,63.049316,-48.156738,-55.908203
739,-0.606445,-1.021484,0.343750,66.589355,-59.020996,-69.458008
740,-0.413086,-1.390625,0.357422,54.138184,-58.776855,-61.157227
741,-0.296875,-1.508301,0.491699,48.706055,-39.428711,-36.804199
742,-0.247559,-1.582520,0.515625,28.930664,-27.221680,-12.207031
743,-0.168945,-1.362305,0.243652,16.296387,-23.864746,-12.023926
744,-0.107910,-1.180176,0.156250,31.616211,-25.695801,-20.507812
745,-0.059570,-1.021484,0.115723,43.579102,-24.047852,-29.968262
746,-0.007324,-0.855469,0.084961,42.114258,-5.554199,-54.382324
747,-0.017090,-0.876953,0.062988,37.597656,6.591797,-68.237305
748,-0.013184,-0.909180,0.059570,36.560059,18.066406,-83.679199
749,0.058594,-0.995117,0.164062,38.146973,33.508301,-97.534180
750,0.134277,-0.981934,0.284180,23.620605,41.748047,-94.055176
751,0.220703,-0.950195,0.362793,-2.502441,50.598145,-83.251953
752,0.288574,-0.904297,0.383789,-32.470703,62.927246,-66.894531
753,0.285156,-0.742188,0.381348,-68.786621,73.364258,-24.780273
754,0.219238,-0.645508,0.462402,-78.063965,65.917969,-6.958008
755,0.145020,-0.548340,0.479004,-85.083008,49.926758,6.286621
756,-0.023926,-0.419434,0.665039,-70.251465,-13.244629,29.357910
757,-0.056152,-0.490723,0.461426,-54.626465,-40.527344,24.658203
758,-0.007812,-0.459961,0.396484,-31.555176,-55.114746,16.662598
759,0.045898,-0.460449,0.362305,-13.427734,-64.880371,12.695312
760,0.104492,-0.569824,0.342773,4.577637,-64.331055,-2.563477
761,0.122559,-0.581543,0.392578,11.718750,-61.218262,-12.145996
762,0.144531,-0.548340,0.438965,17.639160,-46.875000,2.014160
763,0.098145,-0.625000,0.456543,21.606445,-35.156250,15.319824
764,0.047363,-0.708496,0.488281,25.878906,-21.667480,22.399902
765,0.009277,-0.761230,0.520020,30.578613,-7.873535,21.850586
766,0.036621,-0.768066,0.594727,38.391113,13.916016,16.906738
767,0.070801,-0.790039,0.612305,38.818359,19.104004,18.615723
768,0.099609,-0.825195,0.638184,35.583496,20.812988,21.972656
769,0.115234,-0.936035,0.712402,14.709473,7.995605,31.799316
770,0.120117,-0.988770,0.742676,2.685547,-4.638672,33.142090
771,0.127930,-0.969238,0.772949,-10.620117,-23.681641,26.367188
772,0.077637,-0.898926,0.874023,-14.160156,-26.062012,21.118164
773,0.000977,-0.878418,1.000977,-16.113281,-31.372070,15.441895
774,0.108887,-0.986816,1.115234,-28.442383,-61.706543,-15.869141
775,0.345703,-0.978027,0.701660,-17.028809,-53.344727,-24.291992
776,0.517578,-0.906738,0.450195,4.943848,-18.920898,-13.427734
777,0.512207,-0.909180,0.421875,25.024414,14.282227,5.676270
778,0.275391,-1.087402,0.507812,47.851562,33.264160,27.221680
779,0.224121,-1.228027,0.583008,57.556152,23.803711,32.409668
780,0.205566,-1.397949,0.629883,66.772461,8.239746,30.212402
781,0.111816,-1.474609,0.750488,79.101562,-30.883789,9.948730
782,0.132324,-1.250000,0.713867,82.702637,-50.170898,16.601562
783,0.153809,-1.090332,0.604492,67.687988,-49.438477,34.301758
784,0.057617,-0.988281,0.383789,17.639160,-11.169434,59.631348
785,-0.031738,-0.943359,0.317871,-3.723145,7.385254,67.871094
786,-0.130859,-0.902344,0.280762,-15.991211,16.906738,78.002930
787,-0.333984,-0.914551,0.245605,-16.662598,13.244629,97.595215
788,-0.427246,-0.937012,0.283691,-15.869141,1.037598,101.196289
789,-0.519531,-0.986816,0.329102,-16.906738,-18.188477,100.097656
790,-0.604980,-1.039551,0.368164,-22.644043,-39.245605,92.773438
791,-0.596680,-1.011719,0.298828,-54.321289,-68.847656,65.307617
792,-0.541992,-0.988281,0.209961,-68.054199,-63.354492,46.081543
793,-0.475098,-0.959961,0.131836,-75.439453,-45.349121,27.343750
794,-0.306152,-0.802246,0.103027,-56.274414,9.582520,-1.525879
795,-0.217285,-0.701660,0.184082,-35.400391,31.250000,-6.774902
796,-0.118164,-0.663086,0.255859,-21.179199,55.541992,-8.483887
797,0.211914,-0.719238,0.529785,1.464844,140.747070,-3.417969
798,0.262695,-0.656738,0.786133,9.948730,168.884277,-1.892090
799,0.217773,-0.548340,0.708496,5.249023,165.283203,5.676270
800,0.217773,-0.506348,0.635254,1.770020,145.629883,16.662598
801,0.196289,-0.485352,0.579590,6.591797,81.665039,44.067383
802,0.114746,-0.502930,0.490723,15.197754,48.278809,52.062988
803,-0.118652,-0.546875,0.411133,21.972656,6.408691,49.987793
804,-0.242676,-0.588867,0.370117,18.310547,-9.338379,37.780762
805,-0.327148,-0.605469,0.285645,11.352539,-18.005371,18.371582
806,-0.388184,-0.583496,0.238770,5.432129,-20.019531,-3.356934
807,-0.457031,-0.530273,0.297852,1.220703,-30.395508,-43.212891
808,-0.473633,-0.549316,0.340820,3.051758,-34.484863,-60.852051
809,-0.465332,-0.580566,0.426270,3.784180,-35.766602,-79.040527
810,-0.390137,-0.674805,0.653320,-12.512207,-33.874512,-107.177734
811,-0.165039,-0.874023,0.822266,-41.198730,-32.409668,-106.994629
812,0.081055,-0.967285,0.996094,-46.691895,-27.038574,-94.482422
813,0.464355,-1.005859,1.329102,-52.856445,-19.470215,-73.547363
814,0.965820,-1.105957,1.776367,-70.678711,0.427246,-34.667969
815,0.526367,-1.210449,1.270996,-128.479004,-2.685547,43.029785
816,-0.138184,-1.164062,0.426758,-96.435547,-9.094238,58.227539
817,-0.439453,-1.027832,0.146484,-41.625977,7.934570,39.672852
818,-0.606445,-0.844727,0.146484,37.109375,19.104004,-7.019043
819,-0.645020,-0.874023,0.188477,55.480957,3.051758,-32.165527
820,-0.627441,-0.986328,0.170410,68.969727,-10.864258,-58.715820
821,-0.299316,-1.277344,0.302734,72.692871,-6.713867,-72.143555
822,-0.118652,-1.383789,0.577637,73.547363,17.028809,-52.001953
823,-0.109375,-1.479492,0.756836,32.104492,25.085449,-18.920898
824,-0.137695,-1.550293,0.573730,-12.329102,20.996094,-0.305176
825,-0.140625,-1.234375,0.138184,-13.427734,0.000000,-9.460449
826,-0.115723,-1.020996,0.083496,11.413574,-10.314941,-18.249512
827,-0.094238,-0.768555,0.083008,39.855957,-27.343750,-40.710449
828,-0.060059,-0.723145,0.081055,43.701172,-26.306152,-55.725098
829,-0.016602,-0.705566,0.099609,42.358398,-21.606445,-67.810059
830,-0.014648,-0.751465,0.084473,40.161133,-15.747070,-78.002930
831,-0.010742,-0.946777,0.146484,45.959473,-6.774902,-94.543457
832,0.050293,-1.015137,0.249512,48.522949,-6.042480,-92.041016
833,0.131836,-1.048340,0.383301,36.926270,-1.342773,-79.589844
834,0.225586,-1.076172,0.460938,-14.343262,17.028809,-34.179688
835,0.228027,-0.981445,0.462891,-31.494141,28.015137,-17.333984
836,0.202637,-0.820801,0.471191,-41.442871,32.409668,-5.310059
837,0.134766,-0.496582,0.700195,-64.453125,18.554688,10.803223
838,0.098145,-0.456543,0.579590,-76.477051,7.934570,15.563965
839,0.059082,-0.464844,0.449707,-67.749023,1.525879,17.700195
840,0.038574,-0.478027,0.427246,-23.193359,-16.906738,10.803223
841,0.052246,-0.492676,0.455078,-11.840820,-24.047852,5.432129
842,0.081055,-0.508301,0.459473,-8.544922,-27.526855,1.403809
843,0.083984,-0.513672,0.443359,-0.122070,-25.695801,-2.990723
844,0.073730,-0.481934,0.439453,8.483887,-23.071289,0.732422
845,0.036621,-0.483398,0.478516,16.601562,-19.470215,10.314941
846,-0.020996,-0.552246,0.531738,20.385742,-17.028809,19.714355
847,-0.068848,-0.726074,0.571777,22.277832,-11.169434,31.799316
848,-0.068848,-0.813477,0.564453,20.812988,-7.629395,35.034180
849,-0.047363,-0.881836,0.526855,21.728516,-3.784180,36.804199
850,0.000000,-0.904297,0.517578,22.155762,0.976562,37.597656
851,0.049316,-0.983887,0.543457,16.174316,11.352539,37.597656
852,0.086426,-1.018555,0.617676,10.681152,15.136719,31.616211
853,0.154785,-1.014648,0.712891,4.516602,14.221191,24.230957
854,0.229004,-0.985352,0.794434,-1.647949,7.995605,17.456055
855,0.283203,-0.893555,0.873047,-11.352539,-13.549805,16.967773
856,0.273438,-0.923340,0.903809,-5.981445,-27.282715,16.418457
857,0.298340,-1.000977,0.986816,1.708984,-47.790527,5.859375
858,0.414062,-0.980957,0.866211,7.019043,-63.415527,-9.704590
859,0.581543,-0.903320,0.452148,22.399902,-28.808594,-5.126953
860,0.474609,-0.973145,0.443359,35.583496,-1.647949,6.469727
861,0.329102,-1.095703,0.506348,39.123535,15.930176,10.742188
862,0.179688,-1.422852,0.619141,46.508789,24.902344,8.056641
863,0.104004,-1.519531,0.693848,47.241211,24.658203,7.446289
864,0.020508,-1.579102,0.784180,54.504395,14.831543,15.625000
865,-0.036133,-1.513672,0.833008,64.819336,-3.967285,28.320312
866,-0.071289,-1.176270,0.619141,31.677246,-10.681152,59.814453
867,-0.119141,-1.051758,0.470215,3.601074,0.610352,64.819336
868,-0.226074,-0.852539,0.273926,-22.949219,11.901855,65.795898
869,-0.267090,-0.782227,0.233887,-22.766113,9.033203,65.734863
870,-0.310547,-0.749023,0.213379,-19.714355,3.173828,68.054199
871,-0.357910,-0.759766,0.213867,-15.869141,-5.371094,71.228027
872,-0.485352,-0.856934,0.276855,-18.615723,-26.550293,69.763184
873,-0.521484,-0.876465,0.292969,-30.456543,-36.132812,64.697266
874,-0.514648,-0.861328,0.267090,-49.926758,-39.184570,58.715820
875,-0.469238,-0.944336,0.064941,-68.725586,-11.718750,34.545898
876,-0.398438,-0.926758,0.074707,-59.265137,19.531250,19.104004
877,-0.337891,-0.876465,0.149902,-43.640137,47.912598,6.530762
878,-0.046387,-0.842285,0.296875,-8.605957,101.135254,-3.784180
879,0.401855,-1.014648,0.583984,38.024902,158.630371,-8.666992
880,0.427246,-0.689453,1.083984,59.753418,220.214844,-6.408691
881,0.200195,-0.465332,0.748535,-22.155762,150.024414,45.776367
882,0.113281,-0.504395,0.520508,-24.414062,107.177734,56.335449
883,-0.033203,-0.548828,0.253906,7.507324,36.621094,52.429199
884,-0.112793,-0.575684,0.178711,21.118164,24.597168,44.067383
885,-0.182617,-0.595215,0.165527,19.958496,17.944336,33.813477
886,-0.247070,-0.600098,0.157715,13.366699,11.840820,20.690918
887,-0.327148,-0.551270,0.212891,-10.620117,-12.084961,-0.183105
888,-0.357422,-0.552734,0.200684,-17.700195,-28.930664,-9.887695
889,-0.385742,-0.590820,0.192871,-11.901855,-50.720215,-39.489746
890,-0.398926,-0.600586,0.234863,-2.746582,-54.809570,-58.776855
891,-0.404297,-0.600586,0.319336,4.150391,-53.771973,-80.383301
892,-0.324707,-0.589355,0.660645,-4.028320,-39.367676,-116.333008
893,-0.222656,-0.621094,0.900391,-30.517578,-32.470703,-122.497559
894,-0.067871,-0.708984,1.057129,-55.664062,-30.639648,-120.178223
895,0.149414,-0.876953,1.155762,-63.781738,-27.954102,-111.877441
896,0.880859,-0.998535,1.898926,-29.846191,15.380859,-61.218262
897,0.794922,-1.332031,2.250488,-94.238281,38.635254,9.033203
898,0.235352,-1.604004,1.380371,-139.709473,3.051758,37.963867
899,-0.494141,-1.231934,0.043945,-78.979492,-15.319824,34.790039
900,-0.613770,-1.018066,-0.093262,-28.320312,0.427246,15.258789
901,-0.641113,-0.864746,0.035645,8.483887,0.305176,-4.394531
902,-0.640137,-0.976074,-0.015625,68.847656,-26.916504,-43.884277
903,-0.560547,-1.097656,0.170898,84.899902,-25.695801,-59.509277
904,-0.403809,-1.237793,0.285156,78.430176,-18.371582,-59.509277
905,-0.218750,-1.362793,0.458008,75.195312,8.300781,-37.780762
906,-0.283203,-1.449219,0.637695,-30.700684,8.117676,20.507812
907,-0.313477,-1.427246,0.236328,-50.170898,-10.131836,22.766113
908,-0.207031,-1.067871,-0.043945,4.943848,-24.291992,-10.742188
909,-0.166504,-0.895020,0.016113,26.916504,-30.456543,-21.545410
910,-0.144531,-0.793945,0.047852,35.339355,-35.766602,-34.301758
911,-0.108887,-0.735352,0.068359,31.616211,-34.851074,-49.804688
912,-0.090820,-0.820312,0.028320,15.930176,-24.108887,-82.031250
913,-0.076660,-0.890137,-0.010742,24.108887,-17.639160,-98.205566
914,-0.036133,-0.941895,0.018555,43.273926,-13.305664,-106.811523
915,0.131836,-0.886230,0.309082,53.344727,-1.281738,-87.890625
916,0.207520,-0.878418,0.432129,19.104004,13.549805,-57.739258
917,0.217285,-0.949707,0.428223,-19.287109,29.724121,-26.245117
918,0.176270,-0.955566,0.406250,-38.269043,40.588379,-3.417969
919,0.074219,-0.702637,0.740234,-63.415527,35.766602,8.422852
920,0.083008,-0.581055,0.713867,-87.158203,23.864746,8.911133
921,0.079590,-0.583496,0.545410,-90.454102,15.319824,10.375977
922,0.077148,-0.573730,0.478516,-37.841797,-6.591797,0.976562
923,0.092285,-0.528320,0.515137,-13.610840,-22.155762,-4.455566
924,0.130371,-0.468262,0.558594,-0.488281,-49.072266,-9.033203
925,0.123535,-0.434570,0.523926,0.183105,-54.870605,-4.516602
926,0.103516,-0.437988,0.479004,4.760742,-54.321289,4.699707
927,0.068848,-0.485352,0.451172,15.136719,-51.147461,14.221191
928,0.034180,-0.551758,0.454590,26.733398,-45.715332,21.667480
929,-0.000977,-0.724121,0.439453,42.663574,-26.306152,27.465820
930,0.005859,-0.776367,0.425781,46.020508,-10.131836,26.245117
931,0.012207,-0.815430,0.411621,47.119141,6.591797,26.184082
932,0.018066,-0.870117,0.401367,42.724609,28.198242,26.611328
933,0.015137,-0.917480,0.423828,38.208008,29.785156,29.846191
934,0.018555,-0.983398,0.479004,31.738281,24.475098,31.921387
935,0.082520,-1.106445,0.620117,17.578125,7.141113,22.521973
936,0.131836,-1.082520,0.757324,8.117676,-2.807617,12.573242
937,0.168945,-1.026367,0.904785,-3.173828,-16.967773,5.981445
938,0.170898,-0.993164,1.016113,-7.873535,-35.400391,2.685547
939,0.335938,-1.001953,1.036621,-0.122070,-79.895020,-9.033203
940,0.519043,-0.966309,0.679199,3.417969,-63.598633,-7.446289
941,0.571289,-0.971191,0.514648,29.113770,-2.075195,16.235352
942,0.344727,-1.168945,0.562012,34.973145,10.498047,20.690918
943,0.254395,-1.347168,0.572266,40.100098,16.601562,16.845703
944,0.092285,-1.523926,0.654785,46.875000,19.714355,-0.854492
945,0.074219,-1.430176,0.672852,61.340332,7.629395,2.014160
946,0.058594,-1.265625,0.652344,66.467285,-1.953125,18.188477
947,0.040039,-1.146973,0.573730,57.067871,-1.953125,41.137695
948,-0.095703,-1.019531,0.384277,17.395020,20.385742,74.645996
949,-0.216309,-0.976562,0.332520,2.319336,24.291992,85.388184
950,-0.324219,-0.932129,0.298828,-8.666992,19.531250,91.369629
951,-0.472168,-0.910645,0.229492,-21.118164,-4.943848,93.200684
952,-0.559082,-0.940430,0.206543,-22.888184,-18.798828,88.867188
953,-0.623535,-0.949219,0.241211,-27.282715,-33.508301,81.420898
954,-0.624023,-0.922363,0.236328,-36.865234,-47.607422,72.753906
955,-0.630371,-0.969727,0.126953,-62.683105,-46.325684,47.058105
956,-0.555664,-0.989746,0.028809,-65.979004,-26.184082,26.000977
957,-0.447266,-0.942383,0.028320,-56.274414,4.821777,7.385254
958,-0.251953,-0.796387,0.183105,-22.705078,56.518555,-5.981445
959,-0.102051,-0.806641,0.227539,-8.117676,84.289551,-6.530762
960,0.284180,-1.005371,0.374023,36.865234,135.986328,-8.972168
961,0.495117,-0.843750,0.878418,86.730957,209.594727,-11.535645
962,0.232910,-0.438477,0.865723,-7.934570,166.687012,36.987305
963,0.137695,-0.469727,0.577637,-20.629883,124.877930,51.208496
964,0.037109,-0.482422,0.376953,1.037598,42.175293,55.908203
965,-0.076660,-0.521973,0.217773,7.019043,18.066406,50.415039
966,-0.132324,-0.530762,0.179199,11.291504,5.676270,38.208008
967,-0.190430,-0.457031,0.144531,-8.056641,-15.014648,16.540527
968,-0.228516,-0.426270,0.145508,-20.324707,-24.902344,11.535645
969,-0.312988,-0.469238,0.141113,-29.846191,-36.315918,5.065918
970,-0.392578,-0.538086,0.126953,-29.663086,-46.936035,-8.117676
971,-0.464844,-0.629395,0.175293,-4.760742,-57.434082,-53.955078
972,-0.467773,-0.634766,0.277832,8.850098,-54.138184,-81.787109
973,-0.442871,-0.635742,0.436035,11.596680,-46.203613,-107.299805
974,-0.220215,-0.668457,0.919922,-26.672363,-32.958984,-133.605957
975,0.014648,-0.735352,1.166016,-54.748535,-34.240723,-131.042480
976,0.335449,-0.874023,1.339355,-68.481445,-33.691406,-118.347168
977,0.790039,-0.996582,1.534180,-51.635742,-9.277344,-93.444824
978,0.491211,-1.596680,1.994629,-109.619141,57.006836,47.607422
979,-0.192871,-1.618652,0.966309,-117.492676,-2.014160,56.945801
980,-0.508789,-1.322266,0.279297,-79.650879,-29.296875,36.865234
981,-0.618652,-0.832031,-0.078613,12.573242,-15.014648,-6.835938
982,-0.611816,-0.689941,0.021973,39.062500,-13.427734,-30.151367
983,-0.568359,-0.759766,0.115723,73.791504,-29.541016,-69.396973
984,-0.527832,-0.936035,0.286621,80.749512,-36.987305,-81.176758
985,-0.439941,-1.135742,0.320801,77.880859,-41.198730,-80.078125
986,-0.297852,-1.351562,0.358398,76.538086,-28.564453,-61.767578
987,-0.208496,-1.554199,0.608398,59.143066,-10.742188,-25.146484
988,-0.192871,-1.649902,0.478027,-20.874023,-8.911133,14.953613
989,-0.166016,-1.489258,0.259277,-21.911621,-17.883301,8.789062
990,-0.132324,-1.297852,0.117676,2.746582,-29.724121,-4.089355
991,-0.054688,-0.875000,0.075684,43.762207,-42.602539,-29.968262
992,-0.012207,-0.734863,0.082031,43.640137,-39.184570,-36.376953
993,-0.006348,-0.708008,0.056152,35.400391,-30.212402,-40.954590
994,-0.022949,-0.772949,0.007812,32.287598,-20.874023,-48.828125
995,-0.031738,-0.930176,0.105469,48.278809,-10.375977,-66.162109
996,0.019043,-0.959473,0.229980,46.203613,-7.446289,-67.871094
997,0.191895,-0.950684,0.339844,-0.488281,19.714355,-44.921875
998,0.215820,-0.966797,0.341309,-26.794434,39.611816,-28.503418
999,0.199707,-0.918945,0.351074,-42.175293,55.847168,-13.854980
1000,0.169434,-0.756836,0.439941,-48.095703,60.668945,-2.807617
1001,0.120117,-0.514160,0.861328,-92.346191,23.437500,16.479492
1002,0.092773,-0.548340,0.543945,-96.984863,3.356934,23.925781
1003,0.051758,-0.565430,0.467285,-73.608398,-8.422852,22.216797
1004,0.060059,-0.479004,0.423340,-18.493652,-47.851562,12.023926
1005,0.097168,-0.484863,0.422852,-3.112793,-60.974121,5.371094
1006,0.130371,-0.486328,0.461914,5.798340,-70.129395,-0.061035
1007,0.151855,-0.414551,0.416504,17.272949,-73.852539,9.460449
1008,0.102051,-0.467285,0.407227,28.869629,-66.833496,21.545410
1009,0.041504,-0.541016,0.464844,38.330078,-57.189941,27.526855
1010,0.002930,-0.612793,0.499023,43.762207,-46.630859,27.160645
1011,0.001465,-0.737793,0.499023,49.194336,-11.108398,19.897461
1012,0.030762,-0.782715,0.496582,45.959473,11.535645,15.869141
1013,0.057129,-0.882812,0.526367,36.560059,47.363281,16.052246
1014,0.059570,-0.930176,0.606934,30.273438,51.696777,19.042969
1015,0.066895,-0.991211,0.699707,20.385742,43.762207,22.094727
1016,0.155762,-1.075195,0.757812,2.441406,7.690430,19.836426
1017,0.194824,-1.050781,0.776855,-1.831055,-7.995605,14.892578
1018,0.198242,-0.971191,0.852539,-6.591797,-19.958496,11.108398
1019,0.179199,-0.904785,0.920898,-5.126953,-33.935547,9.094238
1020,0.257324,-0.951172,1.015625,8.972168,-78.308105,-10.375977
1021,0.452148,-0.924805,0.672852,13.244629,-73.730469,-18.554688
1022,0.494629,-0.956055,0.501465,35.888672,-12.573242,9.216309
1023,0.324219,-1.197754,0.592285,38.818359,1.464844,15.991211
1024,0.264160,-1.421875,0.608887,42.419434,5.920410,10.559082
1025,0.234863,-1.592285,0.683594,44.799805,7.934570,-0.793457
1026,0.121094,-1.652832,0.824219,54.382324,-6.469727,-2.380371
1027,0.134277,-1.372559,0.808105,54.199219,-17.578125,14.038086
1028,0.040039,-0.992188,0.520508,14.831543,-10.925293,59.082031
1029,-0.060059,-0.905762,0.387207,-4.943848,-4.638672,70.922852
1030,-0.143555,-0.813477,0.298340,-19.104004,-1.098633,80.749512
1031,-0.230469,-0.785156,0.231934,-27.404785,-1.525879,93.383789
1032,-0.424805,-0.876465,0.198730,-24.780273,-15.869141,113.769531
1033,-0.552734,-0.980469,0.173340,-21.179199,-24.414062,112.915039
1034,-0.674316,-1.048340,0.254395,-24.414062,-30.639648,103.576660
1035,-0.755859,-1.075684,0.315918,-38.452148,-41.687012,87.646484
1036,-0.646973,-0.983887,0.125488,-80.261230,-41.564941,53.039551
1037,-0.544434,-0.947266,0.029297,-86.181641,-15.014648,32.043457
1038,-0.438965,-0.886230,0.008789,-80.688477,18.432617,11.474609
1039,-0.214844,-0.722168,0.042969,-31.494141,72.570801,-12.695312
1040,-0.042969,-0.662598,0.152832,-6.530762,100.036621,-10.864258
1041,0.234375,-0.801270,0.247070,31.372070,142.395020,-5.554199
1042,0.411621,-0.739746,0.652832,44.006348,204.833984,12.878418
1043,0.282715,-0.451660,0.778320,3.356934,177.124023,34.118652
1044,0.243164,-0.480957,0.621582,-18.310547,145.263672,49.865723
1045,0.139648,-0.532227,0.450684,-14.831543,70.373535,63.903809
1046,0.040527,-0.566895,0.283691,-8.850098,44.128418,62.744141
1047,-0.056152,-0.598633,0.212402,-5.371094,31.127930,52.856445
1048,-0.196289,-0.535645,0.169434,-22.644043,13.610840,28.564453
1049,-0.270996,-0.488281,0.170410,-32.897949,2.258301,18.676758
1050,-0.356445,-0.476074,0.168945,-39.001465,-12.573242,8.666992
1051,-0.436523,-0.508789,0.150391,-35.827637,-26.611328,-6.958008
1052,-0.542480,-0.572754,0.150391,-2.502441,-37.475586,-55.053711
1053,-0.567383,-0.564941,0.252441,17.517090,-29.235840,-84.167480
1054,-0.526367,-0.543945,0.514160,22.521973,-16.845703,-109.802246
1055,-0.342285,-0.653809,0.968750,-41.809082,-5.493164,-130.554199
1056,-0.142578,-0.816406,1.068359,-72.509766,-3.662109,-132.568359
1057,0.174805,-0.986328,1.250488,-78.186035,2.563477,-131.652832
1058,1.216797,-1.485352,2.228027,-49.011230,74.279785,-40.161133
1059,0.544922,-1.721680,2.045898,-117.370605,43.395996,33.142090
1060,-0.131348,-1.635742,0.798828,-137.451172,-21.667480,50.109863
1061,-0.670410,-1.149414,-0.166504,-40.100098,-29.785156,27.282715
1062,-0.706543,-0.948242,-0.049805,-2.014160,-20.935059,22.521973
1063,-0.758301,-0.923828,0.010742,19.287109,-26.367188,27.221680
1064,-0.712891,-1.255859,0.004395,59.692383,-5.859375,40.222168
1065,-0.578125,-1.505371,0.242188,80.627441,26.916504,44.738770
1066,-0.598145,-1.441895,0.715820,71.533203,48.217773,54.504395
1067,-0.685059,-1.442871,0.248535,-18.127441,-9.399414,16.723633
1068,-0.557129,-1.258301,0.027832,-21.240234,-34.729004,-19.531250
1069,-0.346680,-1.048340,0.030762,-8.666992,-55.297852,-49.255371
1070,-0.164062,-0.820312,-0.049316,13.977051,-84.533691,-85.998535
1071,-0.118652,-0.789551,-0.103027,27.893066,-87.036133,-97.229004
1072,-0.070801,-0.773438,-0.133789,43.701172,-80.810547,-105.590820
1073,-0.036133,-0.777344,-0.085938,54.565430,-67.016602,-111.511230
1074,-0.014648,-0.931152,0.020996,53.222656,-35.217285,-128.601074
1075,0.030273,-1.007812,-0.042480,57.189941,-16.967773,-139.953613
1076,0.116699,-0.967773,-0.030273,67.077637,7.080078,-142.211914
1077,0.298828,-0.807129,0.200684,53.588867,48.645020,-92.224121
1078,0.291016,-0.846191,0.286621,22.949219,66.894531,-54.382324
1079,0.225098,-0.884766,0.368164,-12.512207,74.829102,-28.259277
1080,0.202637,-0.844238,0.452637,-48.400879,68.054199,-15.075684
1081,0.234375,-0.656738,0.552734,-97.473145,29.968262,0.610352
1082,0.204590,-0.612305,0.333496,-101.867676,16.418457,3.234863
1083,0.114746,-0.538086,0.292969,-52.429199,6.835938,1.708984
1084,0.067383,-0.534180,0.428223,-28.076172,-5.249023,-2.624512
1085,0.066406,-0.512695,0.506836,-19.165039,-17.944336,-10.131836
1086,0.081055,-0.511719,0.541016,-20.812988,-35.339355,-21.911621
1087,0.113770,-0.482910,0.469727,-12.268066,-37.597656,-16.418457
1088,0.099121,-0.490234,0.462891,0.915527,-32.470703,-2.197266
1089,0.047852,-0.562988,0.498047,12.512207,-23.498535,11.962891
1090,-0.060547,-0.666504,0.554688,19.836426,-5.187988,37.902832
1091,-0.125488,-0.780273,0.532227,24.597168,-2.441406,47.973633
1092,-0.155273,-0.864746,0.532715,32.531738,-7.080078,51.879883
1093,-0.056152,-0.955566,0.491699,48.522949,-19.348145,53.466797
1094,-0.018066,-1.005859,0.487793,46.936035,-19.836426,53.100586
1095,0.012207,-1.065918,0.496582,40.039062,-18.066406,46.997070
1096,0.059082,-1.104492,0.507324,31.738281,-15.441895,35.827637
1097,0.229492,-1.057129,0.592773,17.517090,-9.582520,11.352539
1098,0.264648,-0.997070,0.664551,9.704590,-9.094238,7.324219
1099,0.293945,-1.029785,0.847656,12.512207,-30.761719,1.831055
1100,0.395020,-1.038574,0.863770,15.136719,-50.537109,-8.178711
1101,0.560059,-0.973145,0.682617,10.681152,-51.635742,-14.709473
1102,0.656738,-0.949219,0.474121,8.117676,-28.930664,-9.155273
1103,0.418457,-1.221191,0.444336,21.423340,18.432617,9.643555
1104,0.317383,-1.407227,0.495117,23.620605,24.780273,1.586914
1105,0.269043,-1.535156,0.568848,30.334473,20.202637,-5.920410
1106,0.166992,-1.544922,0.712891,60.058594,-20.507812,18.188477
1107,0.096680,-1.415527,0.790527,69.763184,-49.926758,49.743652
1108,-0.007812,-1.310547,0.752930,45.288086,-90.759277,93.933105
1109,-0.176270,-1.123535,0.426270,20.568848,-88.012695,95.703125
1110,-0.229004,-1.004395,0.312988,-1.281738,-77.148438,94.909668
1111,-0.275391,-0.947754,0.231445,-19.348145,-62.500000,92.285156
1112,-0.368164,-0.916504,0.125488,-41.015625,-19.836426,77.758789
1113,-0.397461,-0.874023,0.128418,-44.372559,0.000000,76.782227
1114,-0.543457,-0.857910,0.182129,-46.203613,20.080566,81.237793
1115,-0.637695,-0.888184,0.219238,-47.058105,16.784668,80.322266
1116,-0.724609,-0.879883,0.178223,-51.818848,6.469727,60.852051
1117,-0.683594,-0.859863,0.105957,-53.955078,14.587402,42.968750
1118,-0.591309,-0.765137,0.102539,-49.621582,28.137207,24.902344
1119,-0.379395,-0.675293,0.012207,-12.512207,52.246094,9.582520
1120,-0.298340,-0.658691,0.087402,12.573242,68.969727,3.662109
1121,-0.168457,-0.675293,0.180664,33.447266,88.012695,1.342773
1122,-0.000977,-0.750488,0.253906,56.091309,114.013672,0.976562
1123,0.323242,-0.803711,0.796875,96.984863,185.791016,4.577637
1124,0.295898,-0.583984,0.812988,49.011230,177.856445,20.812988
1125,0.199707,-0.560547,0.534668,-18.920898,120.544434,58.471680
1126,0.128906,-0.589844,0.384277,-27.954102,88.623047,65.551758
1127,0.020508,-0.589355,0.232422,-26.062012,64.453125,64.208984
1128,-0.080566,-0.590332,0.144531,-19.348145,51.025391,55.297852
1129,-0.263672,-0.566406,0.101562,-16.845703,28.320312,30.761719
1130,-0.338379,-0.551758,0.137695,-19.409180,15.930176,16.967773
1131,-0.461426,-0.567871,0.224121,-30.212402,-18.127441,-11.474609
1132,-0.483887,-0.588379,0.208008,-27.160645,-31.799316,-31.555176
1133,-0.478516,-0.609375,0.264648,-15.625000,-37.536621,-53.894043
1134,-0.452637,-0.631348,0.389648,-8.544922,-38.391113,-76.721191
1135,-0.299805,-0.666992,0.761230,-24.169922,-30.761719,-113.586426
1136,-0.171387,-0.751465,0.907227,-44.128418,-24.536133,-121.643066
1137,-0.022949,-0.895508,0.983398,-53.039551,-14.282227,-127.319336
1138,0.587402,-1.210449,1.412109,-18.310547,30.822754,-111.328125
1139,0.788086,-1.239746,2.001465,-32.836914,63.171387,-54.138184
1140,0.309570,-1.510742,1.657227,-106.689453,48.400879,13.000488
1141,-0.233887,-1.485352,0.770508,-92.956543,-20.996094,38.513184
1142,-0.713867,-1.058105,-0.037598,-41.870117,-28.076172,26.855469
1143,-0.726074,-0.876465,0.007812,0.244141,-30.517578,5.249023
1144,-0.670898,-0.774414,0.053711,29.846191,-38.269043,-23.376465
1145,-0.485352,-0.846191,0.041016,76.232910,-46.752930,-98.022461
1146,-0.389160,-0.917969,0.106445,92.895508,-46.142578,-123.474121
1147,-0.066406,-1.305176,0.122559,122.009277,-21.789551,-108.764648
1148,0.077148,-1.420410,0.716309,118.957520,4.943848,-56.030273
1149,-0.056641,-1.628906,0.810547,36.865234,19.653320,0.610352
1150,-0.163574,-1.500488,0.260254,-34.484863,-15.197754,20.202637
1151,-0.148926,-1.278809,0.120117,-25.146484,-34.912109,18.371582
1152,-0.163574,-1.150879,0.027344,-7.629395,-52.062988,13.183594
1153,-0.161621,-1.000000,-0.011719,7.751465,-60.974121,3.295898
1154,-0.124512,-0.793457,0.089355,9.033203,-56.518555,-13.366699
1155,-0.143066,-0.842285,0.104492,-3.540039,-56.884766,-22.399902
1156,-0.211426,-1.055664,0.031738,-2.624512,-59.875488,-59.326172
1157,-0.172363,-1.096680,0.057129,11.108398,-61.096191,-75.012207
1158,-0.069824,-1.017090,0.111816,23.742676,-60.119629,-75.500488
1159,0.035645,-0.970703,0.144531,28.442383,-51.757812,-59.509277
1160,0.126953,-1.001465,0.153320,18.127441,-0.183105,-30.578613
1161,0.126953,-0.968750,0.239746,6.591797,28.686523,-29.663086
1162,0.155762,-0.650391,0.477051,-24.353027,58.898926,-32.836914
1163,0.127441,-0.556641,0.577148,-50.476074,60.363770,-25.939941
1164,0.105469,-0.490234,0.318848,-55.969238,57.983398,-17.700195
1165,-0.014160,-0.267578,0.315918,-32.043457,54.321289,8.850098
1166,-0.125488,-0.328125,0.362305,-26.000977,46.203613,16.113281
1167,-0.184082,-0.427734,0.408203,-23.498535,34.606934,12.695312
1168,-0.138672,-0.538574,0.455078,-26.123047,21.972656,4.272461
1169,0.023438,-0.569824,0.714844,-36.315918,-37.963867,7.629395
1170,0.024902,-0.695312,0.581055,-22.033691,-77.453613,15.625000
1171,0.014648,-0.645020,0.505371,23.986816,-93.811035,23.376465
1172,-0.020508,-0.645996,0.451172,35.705566,-74.645996,29.479980
1173,-0.062988,-0.697754,0.420898,45.776367,-47.241211,29.296875
1174,-0.098633,-0.764648,0.402832,54.504395,4.760742,20.751953
1175,-0.101074,-0.830078,0.369629,56.884766,21.789551,19.348145
1176,-0.097656,-0.916992,0.374512,61.950684,31.860352,17.578125
1177,-0.076172,-1.015137,0.414551,66.650391,32.287598,12.817383
1178,0.086426,-1.056641,0.658691,50.964355,10.498047,0.915527
1179,0.178223,-1.035156,0.780273,25.329590,-7.446289,-4.394531
1180,0.317383,-0.948242,0.806641,0.793457,-24.414062,-8.728027
1181,0.486816,-0.893066,0.814453,-14.465332,-40.039062,-7.568359
1182,0.541992,-0.936035,0.887695,-21.667480,-43.151855,-1.220703
1183,0.562988,-1.112793,0.810547,-26.550293,-48.339844,5.798340
1184,0.569336,-1.365234,0.517578,19.592285,-23.986816,9.460449
1185,0.473633,-1.472656,0.554688,35.095215,-13.061523,11.352539
1186,0.362793,-1.561035,0.602539,30.761719,-0.915527,5.554199
1187,0.186523,-1.547852,0.542969,16.967773,3.784180,5.004883
1188,0.063965,-1.410156,0.440430,24.414062,3.356934,28.991699
1189,-0.179199,-1.133789,0.365723,24.963379,9.216309,83.984375
1190,-0.283691,-1.026367,0.329102,10.925293,8.728027,101.196289
1191,-0.391602,-0.970703,0.301270,-5.432129,4.028320,109.741211
1192,-0.496094,-0.957031,0.285156,-20.751953,-2.380371,111.145020
1193,-0.681152,-0.998047,0.294434,-38.330078,-21.301270,97.473145
1194,-0.753418,-1.032715,0.283203,-45.654297,-29.663086,80.017090
1195,-0.725586,-0.947754,0.204590,-64.147949,-27.648926,39.916992
1196,-0.669922,-0.926270,0.107910,-68.725586,-13.427734,22.888184
1197,-0.575684,-0.909668,0.022949,-64.636230,12.084961,6.103516
1198,-0.458008,-0.900391,0.013184,-48.889160,39.489746,-6.896973
1199,-0.212402,-0.819824,0.152344,-13.061523,86.425781,-18.432617
1200,-0.054199,-0.735352,0.286133,-13.122559,105.041504,-10.986328
1201,0.112305,-0.770508,0.320312,-22.705078,129.638672,6.835938
1202,0.473145,-1.032227,0.525879,32.287598,210.449219,28.320312
1203,0.374023,-0.735352,0.805664,18.310547,215.942383,46.264648
1204,0.216797,-0.622559,0.586426,-16.296387,186.096191,71.044922
1205,-0.062500,-0.743652,0.079102,-22.094727,124.267578,66.406250
1206,-0.113770,-0.731445,-0.019531,-15.625000,108.459473,40.344238
1207,-0.128418,-0.646484,-0.059570,-11.779785,94.482422,14.770508
1208,-0.106934,-0.542480,-0.015625,-8.544922,75.073242,-3.051758
1209,-0.110352,-0.362305,0.042480,-12.695312,32.714844,-13.427734
1210,-0.122070,-0.366211,0.115234,-19.287109,16.540527,-16.235352
1211,-0.207520,-0.363281,0.240234,-19.836426,-3.295898,-36.132812
1212,-0.260742,-0.361816,0.374512,-14.526367,-11.535645,-50.048828
1213,-0.283691,-0.406738,0.497070,-14.892578,-22.338867,-68.420410
1214,-0.282715,-0.460449,0.656738,-35.461426,-37.292480,-100.769043
1215,-0.296875,-0.564941,0.697266,-33.325195,-43.701172,-104.553223
1216,-0.312500,-0.769043,0.778320,-22.033691,-47.119141,-106.506348
1217,-0.073730,-1.198730,0.898926,-15.136719,-17.822266,-111.083984
1218,0.205566,-1.353516,1.025879,-5.065918,22.155762,-98.022461
1219,0.544922,-1.518066,1.394531,18.920898,68.359375,-54.016113
1220,0.357910,-1.762207,1.841797,-12.390137,80.566406,10.192871
1221,-0.472656,-1.382324,0.348633,-43.090820,-0.549316,30.090332
1222,-0.581543,-1.128418,0.107422,-28.869629,-20.507812,18.371582
1223,-0.644043,-0.977051,0.013184,-11.352539,-38.940430,13.305664
1224,-0.610352,-1.065918,-0.271484,22.338867,-54.870605,8.911133
1225,-0.514160,-1.223145,-0.227051,39.916992,-32.592773,6.164551
1226,-0.319336,-1.421387,-0.104492,62.194824,-8.544922,16.235352
1227,-0.411621,-1.694824,0.840820,83.129883,47.180176,70.434570
1228,-0.583008,-1.710938,0.583008,15.197754,6.469727,48.034668
1229,-0.591797,-1.542969,0.244629,-20.812988,-36.499023,6.774902
1230,-0.312988,-1.079102,-0.091309,0.061035,-92.773438,-55.236816
1231,-0.197754,-0.938477,-0.133301,21.667480,-107.360840,-74.584961
1232,-0.144043,-0.842285,-0.203613,40.283203,-110.961914,-87.585449
1233,-0.050781,-0.835449,-0.231445,66.162109,-83.740234,-99.060059
1234,-0.026367,-0.890625,-0.165039,71.716309,-61.828613,-105.102539
1235,-0.019531,-0.982910,-0.096191,69.335938,-39.916992,-114.990234
1236,0.099121,-1.089844,-0.078613,59.814453,4.699707,-134.643555
1237,0.205566,-1.021973,0.022949,50.781250,28.198242,-125.732422
1238,0.272949,-0.985352,0.091797,32.531738,46.569824,-101.135254
1239,0.289062,-0.923828,0.260742,-3.479004,78.186035,-44.494629
1240,0.304199,-0.733887,0.593262,-34.423828,74.157715,-26.489258
1241,0.274902,-0.562988,0.893555,-79.162598,52.001953,-7.507324
1242,0.092285,-0.679688,0.562500,-128.723145,2.441406,3.479004
1243,0.076660,-0.683105,0.398438,-91.674805,-9.460449,-9.704590
1244,0.107910,-0.589355,0.418457,-46.813965,-18.981934,-23.193359
1245,0.107422,-0.509766,0.497559,-16.540527,-29.052734,-34.362793
1246,0.097168,-0.341797,0.519531,8.605957,-43.151855,-30.273438
1247,0.055176,-0.346191,0.502930,14.648438,-43.579102,-17.150879
1248,0.021484,-0.356445,0.464355,21.667480,-39.733887,-1.159668
1249,-0.073730,-0.457520,0.375488,41.076660,-21.179199,20.812988
1250,-0.088867,-0.493652,0.344727,52.856445,-11.108398,26.916504
1251,-0.094727,-0.542969,0.375977,62.744141,-4.455566,31.799316
1252,-0.104004,-0.606445,0.388184,67.871094,-3.356934,39.855957
1253,-0.102539,-0.724609,0.395996,61.523438,-5.554199,45.593262
1254,-0.103516,-0.782715,0.376953,50.781250,-8.850098,52.001953
1255,-0.123047,-0.888184,0.302734,29.541016,-16.662598,69.396973
1256,-0.142090,-0.980957,0.306152,20.446777,-18.371582,71.289062
1257,-0.104980,-1.052734,0.350586,11.352539,-17.089844,63.171387
1258,0.065430,-1.080566,0.692383,-12.390137,-13.000488,27.709961
1259,0.114258,-1.151855,0.830078,-20.263672,-23.376465,13.183594
1260,0.192383,-1.302246,0.992188,-11.657715,-44.433594,-6.286621
1261,0.347656,-1.327637,1.143066,5.065918,-78.369141,-29.968262
1262,0.728516,-0.997559,0.739746,8.117676,-95.275879,-19.836426
1263,0.733398,-1.025391,0.515625,15.380859,-59.875488,-2.502441
1264,0.571289,-1.204590,0.490234,33.264160,-9.094238,15.014648
1265,0.477539,-1.357910,0.466797,44.250488,3.417969,12.329102
1266,0.239746,-1.530273,0.601074,59.326172,14.831543,-1.159668
1267,0.182617,-1.375000,0.658203,70.739746,1.831055,7.812500
1268,0.118652,-1.220215,0.641602,74.951172,-14.709473,34.545898
1269,0.042969,-1.158203,0.541016,72.143555,-28.564453,63.171387
1270,-0.127930,-1.119141,0.352539,44.067383,-32.714844,96.252441
1271,-0.204102,-1.066895,0.321777,17.272949,-31.127930,112.182617
1272,-0.444336,-1.119141,0.206543,-40.832520,-35.034180,141.235352
1273,-0.580566,-1.150879,0.129883,-64.331055,-34.179688,143.493652
1274,-0.708008,-1.208496,0.081543,-81.542969,-31.738281,133.605957
1275,-0.794922,-1.221680,0.045410,-91.491699,-29.357910,110.900879
1276,-0.762695,-1.033203,0.024902,-102.050781,-23.376465,58.044434
1277,-0.700195,-0.941895,0.023926,-96.008301,-11.840820,34.484863
1278,-0.576172,-0.832031,0.062500,-85.083008,2.868652,14.831543
1279,-0.285156,-0.694336,0.019043,-47.485352,32.653809,-12.023926
1280,-0.077148,-0.656250,-0.021484,-15.930176,57.373047,-18.981934
1281,0.191406,-0.692383,-0.069336,26.916504,102.722168,-15.014648
1282,0.590332,-0.742676,1.138672,106.872559,225.585938,10.681152
1283,0.436523,-0.522461,1.032227,40.161133,208.251953,38.269043
1284,0.292969,-0.488770,0.796387,-11.413574,175.537109,62.805176
1285,0.157715,-0.515137,0.598633,-31.738281,133.483887,76.782227
1286,-0.065430,-0.521484,0.291992,-19.042969,51.269531,70.922852
1287,-0.142090,-0.537598,0.201660,-7.324219,24.963379,53.039551
1288,-0.220215,-0.464355,0.080566,5.249023,-10.314941,7.934570
1289,-0.247070,-0.409180,0.064453,6.530762,-21.240234,-10.192871
1290,-0.275879,-0.378418,0.070801,5.859375,-29.541016,-24.047852
1291,-0.329102,-0.397461,0.096680,6.103516,-36.132812,-36.315918
1292,-0.460449,-0.497559,0.199219,18.005371,-39.916992,-77.636719
1293,-0.447754,-0.499023,0.375977,20.690918,-39.367676,-106.323242
1294,-0.382812,-0.507812,0.580078,10.131836,-41.992188,-129.882812
1295,-0.239746,-0.687012,0.906738,-49.926758,-42.541504,-157.775879
1296,-0.066895,-0.848145,1.098633,-88.073730,-39.550781,-158.874512
1297,0.228516,-1.085938,1.187500,-112.854004,-29.296875,-148.559570
1298,1.585938,-1.786621,1.313965,-5.798340,63.110352,-77.575684
1299,0.747070,-1.402344,2.108887,-31.433105,76.721191,18.798828
1300,-0.241699,-1.613281,0.855469,-76.110840,24.047852,44.433594
1301,-0.530762,-0.982910,0.080078,0.732422,-2.502441,25.024414
1302,-0.611816,-0.963379,0.053223,27.648926,-4.089355,45.898438
1303,-0.687012,-1.085449,0.041992,37.292480,-9.216309,61.645508
1304,-0.838867,-1.460449,-0.053223,53.039551,-5.615234,80.810547
1305,-0.871094,-1.661621,0.170410,65.734863,6.225586,74.401855
1306,-0.857910,-1.728516,0.441406,57.128906,1.159668,53.100586
1307,-0.753906,-1.659668,0.325684,25.939941,-36.132812,-25.634766
1308,-0.341309,-1.218750,0.123535,26.367188,-50.659180,-52.917480
1309,-0.202637,-1.067383,0.000977,29.907227,-58.288574,-72.814941
1310,-0.119141,-0.960938,-0.115234,37.841797,-54.443359,-90.209961
1311,-0.002441,-0.867676,-0.224609,56.091309,-18.005371,-113.525391
1312,0.025879,-0.864258,-0.190918,62.805176,8.178711,-125.244141
1313,0.077148,-0.868652,-0.145020,64.147949,32.104492,-133.544922
1314,0.190430,-0.876465,0.121582,39.916992,67.565918,-128.234863
1315,0.258789,-0.927246,0.224121,12.207031,70.617676,-111.328125
1316,0.324219,-0.974609,0.267090,-20.874023,73.852539,-85.876465
1317,0.356445,-0.963379,0.431152,-77.331543,55.786133,-29.663086
1318,0.371094,-0.796875,0.500488,-93.750000,33.569336,-4.882812
1319,0.326172,-0.631836,0.711914,-102.172852,-0.305176,19.348145
1320,0.021973,-0.664551,0.584473,-92.407227,-64.880371,34.790039
1321,0.019531,-0.623047,0.416016,-63.476562,-78.552246,24.902344
1322,0.061523,-0.525391,0.332520,-33.325195,-80.505371,14.465332
1323,0.118652,-0.422852,0.298828,2.014160,-65.979004,-5.371094
1324,0.114258,-0.404785,0.335938,7.873535,-57.983398,-12.573242
1325,0.109863,-0.373535,0.347168,7.995605,-50.842285,-14.282227
1326,0.070312,-0.413574,0.276367,11.230469,-30.151367,-2.624512
1327,0.044922,-0.458984,0.246094,23.376465,-11.657715,5.126953
1328,0.009277,-0.521484,0.285156,35.156250,7.629395,10.620117
1329,0.008301,-0.625000,0.389160,46.264648,33.691406,11.230469
1330,0.041504,-0.677734,0.438477,46.203613,36.804199,14.343262
1331,0.070801,-0.741699,0.490723,42.724609,35.156250,21.545410
1332,0.076660,-0.921875,0.552734,22.277832,18.249512,42.419434
1333,0.078125,-1.028809,0.523926,13.916016,3.967285,49.804688
1334,0.096191,-1.120117,0.522949,6.225586,-11.352539,50.231934
1335,0.228516,-1.236816,0.578125,-14.770508,-26.000977,22.460938
1336,0.327637,-1.172852,0.655273,-25.085449,-26.916504,9.033203
1337,0.344238,-1.124023,0.762207,-32.897949,-30.578613,4.516602
1338,0.275879,-1.124023,0.994629,-23.254395,-61.340332,-10.681152
1339,0.353027,-0.951660,0.969238,-16.418457,-77.148438,-19.836426
1340,0.527344,-0.859863,0.408203,4.028320,-30.029297,-6.103516
1341,0.452148,-0.933105,0.376465,24.291992,7.873535,7.141113
1342,0.281738,-1.113281,0.438477,37.231445,26.611328,10.986328
1343,0.199707,-1.277832,0.446289,46.997070,29.235840,9.399414
1344,0.118652,-1.718750,0.542969,68.786621,10.803223,-2.624512
1345,0.094727,-1.716309,0.683594,79.589844,-12.817383,-3.601074
1346,0.098145,-1.520508,0.648926,96.252441,-46.386719,18.005371
1347,0.035645,-1.235352,0.399414,73.974609,-46.081543,66.772461
1348,-0.027344,-1.112305,0.278320,47.607422,-27.587891,76.782227
1349,-0.094238,-1.009766,0.242676,21.057129,-10.925293,85.205078
1350,-0.278320,-0.971191,0.123047,-13.244629,-2.319336,100.708008
1351,-0.388184,-1.018066,0.099609,-20.690918,-2.136230,102.233887
1352,-0.464355,-1.035156,0.127441,-28.320312,-4.394531,100.158691
1353,-0.618164,-1.145996,0.174805,-47.485352,-18.676758,77.331543
1354,-0.627930,-1.149902,0.210449,-56.823730,-27.221680,57.739258
1355,-0.600586,-1.103027,0.145996,-66.101074,-27.832031,38.940430
1356,-0.430176,-0.896484,0.089844,-74.096680,0.854492,9.155273
1357,-0.327148,-0.812988,0.053711,-61.279297,21.972656,-0.427246
1358,-0.233398,-0.732422,0.055176,-39.672852,44.006348,-9.582520
1359,0.125977,-0.713867,0.143555,9.033203,100.219727,-17.639160
1360,0.425293,-0.834961,0.357422,55.419922,153.076172,-15.808105
1361,0.442383,-0.626465,0.866211,71.594238,190.551758,-9.216309
1362,0.289551,-0.474609,0.715820,-2.319336,136.169434,31.982422
1363,0.216309,-0.512695,0.554688,-9.216309,99.426270,44.494629
1364,0.029297,-0.575684,0.222656,15.441895,46.081543,42.297363
1365,-0.038574,-0.564941,0.185547,26.184082,33.935547,33.996582
1366,-0.105957,-0.563965,0.193359,29.235840,22.338867,23.498535
1367,-0.189453,-0.494629,0.214355,12.084961,-4.272461,7.446289
1368,-0.258789,-0.500977,0.188965,-0.244141,-17.395020,-0.122070
1369,-0.345703,-0.552734,0.162598,-10.437012,-26.000977,-13.244629
1370,-0.407227,-0.587402,0.218750,-7.324219,-35.705566,-55.297852
1371,-0.378906,-0.580566,0.315430,-0.305176,-35.278320,-76.477051
1372,-0.350098,-0.596191,0.442383,-0.549316,-31.494141,-95.458984
1373,-0.304199,-0.617188,0.627930,-11.535645,-26.733398,-109.130859
1374,-0.151855,-0.788086,0.807617,-53.161621,-18.127441,-112.304688
1375,0.004395,-0.887207,0.900879,-63.293457,-14.282227,-100.708008
1376,0.213379,-1.026855,1.032227,-59.936523,-12.023926,-84.106445
1377,1.244629,-1.432129,1.768066,-25.207520,11.840820,-46.630859
1378,0.901367,-1.206543,1.900879,-91.613770,24.902344,6.835938
1379,0.111328,-1.215332,0.766602,-122.253418,-4.882812,49.194336
1380,-0.649414,-1.061035,0.045898,-14.770508,8.300781,27.587891
1381,-0.730957,-0.994629,0.062012,33.081055,3.967285,7.751465
1382,-0.715820,-0.980469,0.087402,61.340332,-9.216309,-12.756348
1383,-0.590332,-1.118164,0.092285,88.195801,-26.367188,-19.592285
1384,-0.532715,-1.371582,0.166016,86.975098,-23.376465,-3.417969
1385,-0.437012,-1.625488,0.380859,78.186035,-2.624512,13.427734
1386,-0.447754,-1.768066,0.416504,-4.394531,-2.624512,32.287598
1387,-0.419434,-1.644043,0.163574,-17.944336,-16.784668,14.160156
1388,-0.292969,-1.418945,-0.000977,-4.089355,-25.756836,-12.268066
1389,-0.147461,-1.151367,-0.022461,14.160156,-31.738281,-34.301758
1390,-0.023438,-0.854492,-0.069336,33.813477,-32.531738,-58.532715
1391,-0.010742,-0.854004,-0.097168,38.330078,-23.376465,-72.082520
1392,0.043945,-0.887695,-0.036621,54.992676,-0.732422,-101.745605
1393,0.089844,-0.927734,0.083496,55.480957,7.873535,-106.140137
1394,0.129883,-0.984863,0.195312,44.677734,10.437012,-103.942871
1395,0.322754,-0.963379,0.241699,0.183105,17.272949,-67.932129
1396,0.371094,-0.981934,0.329590,-30.395508,27.221680,-34.362793
1397,0.353027,-0.946289,0.373535,-59.875488,29.663086,-6.896973
1398,0.189453,-0.650391,0.674805,-96.069336,20.385742,24.291992
1399,0.062012,-0.571289,0.811035,-121.520996,0.976562,28.015137
1400,-0.057617,-0.594238,0.389648,-90.393066,-30.517578,18.981934
1401,-0.024414,-0.503418,0.346680,-41.687012,-36.865234,10.681152
1402,0.024902,-0.422852,0.352539,-4.150391,-44.189453,4.516602
1403,0.075195,-0.412598,0.374023,15.563965,-50.109863,-1.525879
1404,0.101562,-0.395508,0.388672,34.057617,-62.683105,-12.084961
1405,0.117676,-0.364746,0.361328,36.621094,-61.767578,-4.821777
1406,0.103516,-0.423340,0.326660,40.710449,-55.847168,6.408691
1407,0.034668,-0.602539,0.343750,50.415039,-33.752441,20.446777
1408,0.045410,-0.655762,0.358398,52.734375,-22.033691,21.606445
1409,0.081543,-0.695801,0.362305,53.771973,-10.131836,22.827148
1410,0.119629,-0.728516,0.367676,53.955078,1.159668,25.817871
1411,0.132324,-0.843750,0.410645,45.532227,17.639160,32.958984
1412,0.125977,-0.897949,0.440918,35.339355,18.249512,38.146973
1413,0.111816,-0.969238,0.482910,21.240234,13.549805,44.311523
1414,0.118652,-1.133789,0.597168,-14.099121,-7.446289,44.738770
1415,0.146973,-1.168945,0.622070,-28.259277,-17.517090,35.339355
1416,0.153809,-1.060547,0.783691,-28.320312,-34.240723,15.258789
1417,0.138672,-1.051270,0.982910,-18.371582,-50.842285,4.821777
1418,0.183594,-1.085938,1.135742,-11.962891,-77.453613,-14.465332
1419,0.396484,-0.976562,0.908203,-10.620117,-91.857910,-26.550293
1420,0.651855,-0.958008,0.385254,15.319824,-23.742676,-0.305176
1421,0.507324,-1.127930,0.459473,30.639648,3.173828,17.883301
1422,0.362305,-1.394531,0.518555,38.940430,14.038086,16.662598
1423,0.227051,-1.761719,0.628906,44.677734,16.662598,-15.869141
1424,0.218750,-1.644531,0.671875,59.814453,0.305176,-13.793945
1425,0.185547,-1.434570,0.706543,74.890137,-21.667480,10.070801
1426,0.070801,-1.149902,0.450195,56.457520,-36.682129,59.082031
1427,-0.002441,-1.078613,0.338379,38.940430,-29.052734,70.861816
1428,-0.093750,-1.010742,0.285156,20.690918,-22.338867,81.298828
1429,-0.175293,-0.948242,0.237305,1.342773,-19.042969,94.116211
1430,-0.430176,-1.029297,0.131348,-26.428223,-14.709473,112.731934
1431,-0.554199,-1.095703,0.131836,-36.682129,-12.268066,109.069824
1432,-0.657227,-1.137695,0.186523,-52.490234,-23.864746,81.665039
1433,-0.681152,-1.107910,0.180176,-56.457520,-36.865234,59.692383
1434,-0.636230,-1.026855,0.130371,-63.476562,-41.870117,35.278320
1435,-0.426270,-0.877441,-0.016113,-63.293457,-8.178711,-4.394531
1436,-0.283691,-0.766602,-0.002441,-46.325684,16.296387,-13.732910
1437,-0.181152,-0.664062,0.031738,-25.451660,38.818359,-15.869141
1438,-0.011230,-0.654297,0.117676,11.718750,78.674316,-15.686035
1439,0.208008,-0.739746,0.083008,41.137695,116.821289,-14.099121
1440,0.433594,-0.792480,0.507324,82.885742,171.936035,-8.361816
1441,0.324707,-0.512207,0.777832,-0.671387,155.761719,22.338867
1442,0.296875,-0.521484,0.575684,-24.108887,123.229980,35.400391
1443,0.255371,-0.545410,0.461914,-26.611328,89.599609,45.593262
1444,0.179199,-0.599609,0.346680,-18.493652,57.495117,49.377441
1445,0.041504,-0.574219,0.205078,-3.906250,22.399902,42.663574
1446,-0.029785,-0.555664,0.187012,-7.324219,14.526367,35.400391
1447,-0.206543,-0.536133,0.187012,-19.226074,-3.234863,16.662598
1448,-0.316895,-0.567383,0.160156,-18.981934,-13.366699,0.061035
1449,-0.402832,-0.595703,0.161133,-12.145996,-22.827148,-22.644043
1450,-0.446777,-0.616211,0.184082,15.869141,-25.878906,-79.528809
1451,-0.432617,-0.603027,0.459961,20.385742,-18.981934,-107.238770
1452,-0.390625,-0.630859,0.644531,8.544922,-14.831543,-128.417969
1453,-0.298340,-0.676270,0.783203,-13.427734,-11.535645,-140.380859
1454,-0.009277,-0.885742,0.953613,-44.982910,-15.869141,-127.746582
1455,0.214844,-1.025879,1.022461,-45.532227,-14.587402,-109.191895
1456,0.496582,-1.143555,1.117676,-38.208008,-4.760742,-88.623047
1457,0.934570,-1.166504,1.895508,-51.818848,35.644531,-3.295898
1458,0.278809,-1.231934,0.968262,-100.585938,5.554199,40.771484
1459,-0.271484,-1.217285,0.284668,-78.979492,5.371094,49.865723
1460,-0.614746,-0.994141,0.118164,2.685547,22.949219,35.156250
1461,-0.707031,-1.038086,0.111816,32.165527,14.587402,15.380859
1462,-0.704590,-1.082520,0.098633,54.077148,-2.929688,-4.821777
1463,-0.628418,-1.340820,0.139648,90.820312,-30.029297,-21.057129
1464,-0.537109,-1.535645,0.227051,88.317871,-22.155762,-23.132324
1465,-0.360840,-1.621582,0.383301,76.904297,1.403809,-23.254395
1466,-0.256836,-1.575684,0.509277,47.973633,17.761230,-14.831543
1467,-0.105957,-1.316406,0.166992,6.347656,15.747070,-17.089844
1468,-0.044922,-1.155762,0.065918,14.709473,8.850098,-20.935059
1469,-0.015625,-1.038574,-0.005371,27.526855,4.089355,-27.709961
1470,0.005371,-0.972168,-0.076660,39.855957,12.878418,-55.480957
1471,0.021973,-0.970703,-0.023926,36.865234,24.597168,-78.918457
1472,0.033203,-0.983398,-0.003418,31.188965,35.156250,-102.478027
1473,0.178711,-0.969727,0.163574,18.920898,37.536621,-120.178223
1474,0.303711,-0.964355,0.254883,-7.751465,36.071777,-106.262207
1475,0.403809,-0.986816,0.310547,-44.128418,36.987305,-80.871582
1476,0.464844,-0.983398,0.291992,-99.670410,41.076660,-24.169922
1477,0.412598,-0.857422,0.331055,-101.318359,36.254883,-0.183105
1478,0.053711,-0.625488,0.836426,-84.777832,-10.314941,31.982422
1479,-0.044922,-0.637695,0.762207,-84.716797,-31.799316,21.850586
1480,-0.006348,-0.595703,0.575684,-69.824219,-38.391113,7.507324
1481,0.076172,-0.512695,0.414551,-39.733887,-36.071777,-1.159668
1482,0.127441,-0.429688,0.411621,15.747070,-35.278320,-9.826660
1483,0.107910,-0.356445,0.402344,31.188965,-37.902832,-14.892578
1484,0.109863,-0.291992,0.414062,34.301758,-32.226562,-12.634277
1485,0.081055,-0.392578,0.332520,37.902832,-9.704590,2.380371
1486,0.062988,-0.491699,0.289551,44.433594,7.690430,7.873535
1487,0.060059,-0.572266,0.294434,54.687500,24.353027,9.582520
1488,0.132812,-0.678223,0.366211,63.415527,46.142578,13.549805
1489,0.162109,-0.757324,0.388184,62.072754,52.185059,17.333984
1490,0.189941,-0.920410,0.492188,47.180176,48.889160,26.489258
1491,0.195801,-1.018555,0.512695,33.325195,36.499023,32.409668
1492,0.214844,-1.108398,0.520508,18.005371,18.737793,34.912109
1493,0.298828,-1.224121,0.478027,-13.549805,-15.563965,25.817871
1494,0.317871,-1.207031,0.436035,-20.935059,-20.263672,13.610840
1495,0.308594,-1.102539,0.506836,-18.615723,-19.104004,4.821777
1496,0.145508,-0.912109,0.914551,-10.253906,-14.709473,-6.896973
1497,0.090332,-0.952148,1.159668,-20.874023,-16.540527,-23.498535
1498,0.222168,-1.051270,0.986816,-37.170410,-15.747070,-53.161621
1499,0.524902,-1.005371,0.443359,-20.202637,11.291504,-60.485840
1500,0.674316,-1.097168,0.475098,23.437500,77.514648,-23.498535
1501,0.583984,-1.378418,0.524414,29.296875,88.195801,-14.465332
1502,0.517578,-1.751953,0.614746,59.814453,75.195312,-30.944824
1503,0.441895,-1.640137,0.729004,71.228027,61.584473,-41.198730
1504,0.378906,-1.313477,0.685059,67.016602,42.785645,-43.457031
1505,0.317383,-1.066895,0.499023,60.546875,35.705566,-32.043457
1506,0.192871,-0.967285,0.208008,52.734375,37.841797,-17.150879
1507,0.137695,-0.941895,0.151855,45.959473,42.907715,-14.221191
1508,0.104492,-0.922363,0.105469,35.766602,46.081543,-7.202148
1509,0.065430,-0.943848,0.051758,24.841309,49.316406,3.356934
1510,-0.069824,-1.063965,-0.014160,0.793457,58.105469,26.916504
1511,-0.165527,-1.164062,-0.025391,-10.437012,58.654785,32.836914
1512,-0.361328,-1.400391,-0.054199,-28.564453,54.992676,19.470215
1513,-0.389160,-1.391602,-0.054688,-37.658691,56.579590,0.183105
1514,-0.321289,-1.240234,-0.048828,-47.058105,60.607910,-13.366699
1515,-0.298340,-0.975586,-0.031738,-49.377441,68.115234,-24.353027
1516,-0.265137,-0.863281,0.015137,-45.715332,69.824219,-33.691406
1517,-0.207520,-0.768066,0.036621,-41.320801,71.594238,-43.212891
1518,-0.070801,-0.637695,0.060059,-31.494141,85.205078,-55.114746
1519,-0.024902,-0.610352,0.100586,-24.780273,101.257324,-53.283691
1520,-0.036133,-0.625000,0.215332,-22.033691,117.614746,-49.133301
1521,-0.059570,-0.650391,0.284180,-26.977539,130.798340,-48.400879
1522,-0.078125,-0.672852,0.309082,-31.738281,142.761230,-51.086426
1523,-0.076172,-0.657715,0.383789,-29.968262,138.427734,-54.382324
1524,-0.057617,-0.622070,0.485352,-30.822754,125.183105,-57.128906
1525,0.006348,-0.555664,0.529785,-26.367188,86.975098,-60.607910
1526,0.018555,-0.536621,0.536133,-17.456055,74.096680,-62.072754
1527,0.002930,-0.547852,0.563965,-10.314941,68.054199,-63.598633
1528,-0.030762,-0.599121,0.541504,-4.028320,78.979492,-72.265625
1529,-0.111816,-0.761230,0.469238,-3.479004,92.834473,-77.209473
1530,-0.138672,-0.834961,0.469238,-3.112793,105.224609,-79.772949
1531,-0.148438,-0.897461,0.512695,-5.859375,110.412598,-79.101562
1532,-0.115723,-0.996582,0.549316,-16.357422,98.999023,-71.472168
1533,-0.078613,-1.032227,0.524414,-21.850586,89.538574,-65.429688
1534,-0.041992,-1.042969,0.502441,-23.925781,81.542969,-60.546875
1535,-0.060059,-0.970703,0.495605,-23.681641,65.734863,-47.180176
1536,-0.113770,-0.956055,0.504395,-24.169922,59.509277,-41.564941
1537,-0.175293,-0.953613,0.525391,-23.315430,53.527832,-36.743164
1538,-0.236328,-0.966309,0.575684,-23.254395,47.912598,-31.372070
1539,-0.275391,-1.016602,0.625000,-24.047852,41.992188,-22.705078
1540,-0.256348,-0.999512,0.705566,-20.202637,44.677734,-21.484375
1541,-0.245605,-0.975586,0.797363,-20.935059,49.682617,-22.338867
1542,-0.346680,-1.147949,0.702148,-24.597168,56.701660,-26.306152
1543,-0.407227,-1.273926,0.545898,-0.976562,55.175781,-31.616211
1544,-0.391602,-1.357422,0.520508,28.381348,51.025391,-38.208008
1545,-0.183594,-1.497070,0.565430,63.842773,31.677246,-44.860840
1546,-0.038086,-1.439453,0.606445,64.758301,23.742676,-45.959473
1547,0.076172,-1.288086,0.560547,48.583984,20.202637,-40.954590
1548,0.135254,-1.082031,0.285645,10.437012,35.217285,-29.174805
1549,0.145508,-0.998047,0.154785,3.112793,45.532227,-34.240723
1550,0.184082,-0.926758,0.044922,-1.953125,77.453613,-59.020996
1551,0.286621,-0.878418,-0.004395,-12.145996,97.595215,-72.509766
1552,0.365723,-0.880859,0.004883,-29.541016,117.553711,-81.298828
1553,0.464355,-0.875000,0.037109,-48.767090,131.225586,-80.078125
1554,0.545410,-0.897461,0.184570,-83.923340,118.408203,-39.611816
1555,0.486816,-1.023438,0.315430,-79.345703,77.758789,-20.324707
1556,0.435059,-1.106934,0.448730,-50.598145,11.901855,-14.221191
1557,0.157715,-0.980469,0.833008,-4.211426,-109.252930,-19.592285
1558,0.130859,-0.877930,0.611328,-22.827148,-145.507812,-19.165039
1559,0.118164,-0.782715,0.395020,-21.484375,-149.780273,-10.437012
1560,0.026855,-0.628418,0.264648,7.629395,-129.150391,16.967773
1561,-0.061035,-0.584961,0.268066,24.291992,-111.999512,25.146484
1562,-0.163086,-0.558594,0.350586,31.616211,-94.177246,27.893066
1563,-0.349121,-0.604004,0.550293,12.451172,-54.931641,22.033691
1564,-0.170410,-0.749512,0.305664,-23.498535,-11.657715,11.047363
1565,-0.066406,-0.782715,0.212402,-9.216309,-2.441406,13.122559
1566,-0.002441,-0.811035,0.165527,6.225586,-0.854492,16.479492
1567,0.055176,-0.857910,0.060059,29.418945,-8.911133,24.047852
1568,0.091797,-0.857910,0.048340,33.813477,-16.174316,26.306152
1569,0.122559,-0.864746,0.070312,31.372070,-25.939941,27.404785
1570,0.153320,-0.858398,0.117676,25.085449,-41.687012,26.672363
1571,0.276855,-0.734375,0.126465,8.056641,-71.716309,22.827148
1572,0.249023,-0.626953,0.216309,-0.305176,-84.716797,41.198730
1573,0.138672,-0.654785,0.362305,-0.244141,-88.867188,48.339844
1574,0.000000,-0.708984,0.560059,2.624512,-98.693848,49.560547
1575,-0.001953,-0.796387,0.699219,17.272949,-139.282227,47.546387
1576,0.080566,-0.825684,0.572266,23.803711,-142.028809,49.865723
1577,0.126953,-0.833496,0.553711,33.081055,-135.803223,53.283691
1578,0.126953,-0.841309,0.558105,40.039062,-125.061035,56.640625
1579,0.088379,-0.906250,0.649414,16.784668,-87.768555,57.067871
1580,0.053711,-0.988281,0.607422,-10.253906,-65.063477,55.480957
1581,-0.009277,-1.124512,0.438965,-14.831543,-37.292480,58.227539
1582,-0.014648,-1.137207,0.427246,2.258301,-38.024902,64.453125
1583,-0.006836,-1.082520,0.444824,23.925781,-47.668457,72.570801
1584,-0.009277,-1.008301,0.507324,43.334961,-62.500000,80.383301
1585,-0.002930,-0.994629,0.673828,58.532715,-101.867676,87.768555
1586,0.024902,-1.116699,0.652832,57.006836,-120.300293,83.312988
1587,0.038574,-1.280273,0.620117,54.382324,-132.507324,75.134277
1588,0.034180,-1.722168,0.667969,39.978027,-146.118164,39.916992
1589,0.295898,-1.779785,0.380859,32.165527,-127.136230,25.024414
1590,0.465820,-1.595703,0.111816,44.006348,-79.833984,31.799316
1591,0.292480,-1.143066,0.132812,58.044434,-6.530762,65.612793
1592,0.226074,-0.935547,0.126953,62.438965,2.136230,79.711914
1593,0.167480,-0.791016,0.187988,66.284180,-8.911133,103.637695
1594,0.024902,-0.774902,0.213379,46.630859,-63.293457,148.376465
1595,-0.283691,-1.034180,0.203125,25.024414,-96.313477,150.207520
1596,-0.416016,-1.226074,0.133301,-0.671387,-126.281738,133.666992
1597,-0.315918,-1.399902,-0.099609,-52.978516,-149.841309,60.607910
1598,-0.182129,-1.378418,-0.132324,-57.617188,-135.375977,34.301758
1599,-0.082031,-1.325195,-0.064941,-52.062988,-114.868164,24.719238
1600,-0.067383,-1.184082,0.120605,-42.907715,-79.772949,32.653809
1601,-0.066895,-0.999023,0.057129,-41.442871,-59.997559,34.179688
1602,-0.073730,-0.852051,0.061035,-38.452148,-37.841797,30.212402
1603,0.051758,-0.642578,0.080078,-19.287109,5.493164,9.643555
1604,0.165039,-0.596680,0.119629,-6.896973,36.804199,3.112793
1605,0.315430,-0.614258,0.199219,6.652832,76.110840,2.746582
1606,0.509766,-0.509277,0.903320,20.202637,147.644043,22.399902
1607,0.389648,-0.428711,0.952637,-20.202637,139.526367,44.555664
1608,0.212891,-0.460449,0.879395,-50.781250,112.304688,58.410645
1609,-0.008301,-0.497559,0.782715,-58.776855,69.274902,61.218262
1610,-0.158691,-0.529297,0.406738,-17.211914,-15.014648,51.330566
1611,-0.184570,-0.518066,0.338379,3.662109,-37.719727,37.963867
1612,-0.221191,-0.448242,0.303223,12.145996,-68.786621,11.413574
1613,-0.258301,-0.482910,0.238281,11.413574,-76.721191,0.549316
1614,-0.310059,-0.564941,0.204590,15.380859,-76.965332,-15.075684
1615,-0.348633,-0.658203,0.247070,20.812988,-69.580078,-37.963867
1616,-0.232422,-0.731445,0.455078,6.164551,-56.701660,-74.157715
1617,-0.156250,-0.815430,0.557129,-13.549805,-49.072266,-84.228516
1618,-0.039062,-0.921387,0.624512,-31.982422,-43.762207,-87.158203
1619,0.216797,-1.095215,0.738281,-46.325684,-33.142090,-64.086914
1620,0.346680,-1.156738,0.862305,-51.147461,-29.907227,-44.006348
1621,0.634277,-1.251953,1.051270,-51.330566,-19.348145,-26.428223
1622,0.606934,-1.065918,1.516113,-148.315430,34.667969,69.274902
1623,-0.347656,-1.490234,0.637207,-157.226562,39.245605,97.473145
1624,-0.621094,-1.380371,0.215332,-98.510742,47.790527,80.932617
1625,-0.761230,-1.273438,0.202148,-26.550293,37.658691,78.002930
1626,-0.850586,-1.324219,0.188965,42.541504,-25.634766,66.589355
1627,-0.822266,-1.377930,0.127930,50.354004,-59.387207,43.457031
1628,-0.740723,-1.393066,0.082520,49.499512,-77.575684,14.160156
1629,-0.320801,-1.223633,0.141602,23.925781,-83.435059,-37.109375
1630,-0.171875,-1.193848,0.024902,19.775391,-73.791504,-53.649902
1631,-0.024902,-1.104004,-0.024902,21.179199,-53.344727,-69.213867
1632,0.142578,-0.915039,-0.000488,15.441895,-19.897461,-81.176758
1633,0.199707,-0.853027,-0.020020,14.160156,-10.742188,-78.674316
1634,0.233398,-0.817383,-0.057129,18.676758,-2.685547,-74.707031
1635,0.268555,-0.785156,-0.018555,29.968262,20.141602,-68.847656
1636,0.292480,-0.822266,0.027344,24.658203,34.484863,-68.054199
1637,0.333496,-0.923828,0.101562,12.817383,60.668945,-59.753418
1638,0.321289,-0.958984,0.227051,5.004883,68.664551,-47.973633
1639,0.320312,-0.972656,0.345703,-11.291504,67.382812,-35.644531
1640,0.299316,-0.838867,0.441895,-54.321289,47.912598,-6.286621
1641,0.224609,-0.756836,0.449707,-63.171387,24.414062,10.559082
1642,0.137695,-0.733887,0.449219,-54.565430,-5.004883,19.165039
1643,0.084473,-0.682617,0.458984,-27.709961,-52.917480,3.662109
1644,0.110352,-0.656738,0.414551,-24.597168,-60.241699,-10.192871
1645,0.136230,-0.625000,0.337402,-20.690918,-59.204102,-19.226074
1646,0.132324,-0.561523,0.272461,3.295898,-52.551270,-11.535645
1647,0.107910,-0.587891,0.288574,12.023926,-50.292969,-2.685547
1648,0.098633,-0.589355,0.307617,15.625000,-47.363281,5.310059
1649,0.082520,-0.605469,0.294434,12.939453,-42.724609,19.653320
1650,-0.114258,-0.768066,0.249512,8.605957,-21.789551,34.362793
1651,-0.198730,-0.789062,0.259766,6.958008,-8.972168,32.348633
1652,-0.229004,-0.779297,0.303711,4.394531,2.624512,30.822754
1653,-0.141113,-0.739258,0.412109,6.469727,4.211426,41.015625
1654,-0.111816,-0.784180,0.469238,13.732910,-1.770020,46.142578
1655,-0.060547,-0.835449,0.562988,16.540527,-8.972168,48.278809
1656,0.080566,-0.997070,0.695312,0.732422,-26.062012,43.395996
1657,0.150391,-1.083984,0.656250,-5.126953,-32.226562,35.705566
1658,0.227051,-1.113770,0.636230,-3.479004,-35.217285,27.709961
1659,0.344238,-1.075195,0.790039,1.647949,-43.640137,20.263672
1660,0.300293,-1.184082,0.871094,0.488281,-53.344727,7.812500
1661,0.487793,-0.971191,0.579590,18.127441,-64.025879,-13.732910
1662,0.557617,-0.960938,0.368652,24.597168,-38.574219,-2.014160
1663,0.525879,-1.050293,0.264648,30.517578,-4.028320,10.742188
1664,0.407715,-1.216797,0.251953,37.780762,19.592285,15.991211
1665,0.298340,-1.615723,0.330078,65.307617,34.423828,6.164551
1666,0.263184,-1.750000,0.460449,73.364258,29.296875,-7.141113
1667,0.186523,-1.435547,0.567383,84.411621,-4.699707,15.930176
1668,0.113770,-1.326172,0.491211,72.509766,-13.122559,42.297363
1669,0.010254,-1.233398,0.380371,52.612305,-11.962891,61.401367
1670,-0.097168,-1.135742,0.300293,34.179688,-8.483887,74.890137
1671,-0.343262,-1.048340,0.207520,3.845215,-13.061523,84.533691
1672,-0.357422,-0.994629,0.254883,-12.207031,-21.545410,83.923340
1673,-0.409180,-0.977539,0.196777,-26.184082,-37.048340,89.904785
1674,-0.451172,-0.995605,0.150391,-33.752441,-53.894043,90.209961
1675,-0.583984,-1.073242,0.121582,-49.560547,-71.777344,74.157715
1676,-0.614746,-1.062988,0.144043,-63.781738,-72.448730,57.678223
1677,-0.543457,-0.978027,-0.000977,-85.266113,-51.757812,25.695801
1678,-0.432617,-0.897949,-0.067871,-78.796387,-30.822754,13.366699
1679,-0.316406,-0.786133,-0.046387,-63.049316,-7.446289,6.958008
1680,-0.166992,-0.636230,0.087891,-30.273438,35.156250,2.868652
1681,-0.042969,-0.625000,0.127930,-18.859863,59.570312,4.760742
1682,0.157715,-0.738770,0.103027,4.272461,101.562500,8.117676
1683,0.264160,-0.567383,0.753418,40.710449,155.334473,18.676758
1684,0.214355,-0.514160,0.667969,16.113281,133.911133,31.738281
1685,0.190918,-0.487305,0.568359,2.502441,100.769043,43.457031
1686,0.087891,-0.524414,0.353516,4.272461,31.127930,53.955078
1687,0.015625,-0.538574,0.278809,12.390137,9.948730,51.513672
1688,-0.060547,-0.554199,0.248047,17.517090,-5.615234,44.555664
1689,-0.147461,-0.587402,0.216309,18.249512,-18.066406,33.630371
1690,-0.314941,-0.633789,0.202637,10.742188,-34.118652,0.061035
1691,-0.370117,-0.647949,0.223145,4.577637,-39.855957,-23.620605
1692,-0.356934,-0.627441,0.239258,2.807617,-43.457031,-46.203613
1693,-0.341309,-0.628418,0.299805,-0.732422,-39.611816,-78.247070
1694,-0.337891,-0.693848,0.489258,-6.530762,-33.386230,-92.163086
1695,-0.291992,-0.729004,0.625000,-20.080566,-26.245117,-100.280762
1696,-0.215332,-0.807129,0.707031,-35.034180,-20.019531,-98.571777
1697,0.096191,-1.059570,0.894531,-50.964355,3.356934,-77.270508
1698,0.466309,-1.216797,1.179199,-47.302246,25.756836,-60.241699
1699,0.686035,-1.404785,1.730957,-94.421387,63.049316,36.071777
1700,-0.131836,-1.441406,0.785156,-88.500977,24.414062,62.683105
1701,-0.478027,-1.234375,0.367676,-40.771484,0.610352,41.198730
1702,-0.583008,-0.911621,0.130371,37.963867,-33.142090,-16.601562
1703,-0.551758,-0.880371,0.052246,49.194336,-37.902832,-54.138184
1704,-0.480957,-0.899902,-0.005859,63.110352,-35.644531,-87.951660
1705,-0.419434,-0.980957,0.070312,84.655762,-35.156250,-112.854004
1706,-0.069336,-1.196777,0.196289,105.895996,-31.860352,-106.750488
1707,0.185547,-1.317871,0.509766,94.604492,-11.962891,-59.204102
1708,0.181152,-1.446289,0.532227,45.654297,6.042480,6.042480
1709,-0.173828,-1.530273,0.106934,-12.329102,16.113281,44.677734
1710,-0.212891,-1.424316,-0.041992,-3.356934,17.089844,26.977539
1711,-0.178711,-1.283203,-0.097656,15.563965,13.122559,7.690430
1712,-0.160156,-1.164062,-0.121582,30.151367,10.864258,-12.451172
1713,-0.107910,-0.969727,0.012695,23.193359,10.986328,-52.490234
1714,-0.063965,-0.950195,0.009766,6.286621,6.713867,-69.519043
1715,0.041016,-1.022461,-0.135742,6.408691,-2.624512,-85.571289
1716,0.119141,-1.035156,-0.104492,21.545410,-1.892090,-78.125000
1717,0.203125,-1.012207,0.170898,15.686035,11.169434,-36.499023
1718,0.168457,-1.007324,0.263184,-6.713867,20.080566,-15.991211
1719,0.105469,-0.949707,0.351074,-27.221680,23.864746,0.366211
1720,0.044434,-0.787598,0.397949,-39.489746,21.911621,13.427734
1721,-0.155273,-0.514648,1.069336,-67.321777,15.808105,16.723633
1722,-0.089844,-0.520020,0.893066,-111.450195,2.624512,8.483887
1723,0.011719,-0.613281,0.622559,-119.689941,-0.244141,-5.371094
1724,0.134277,-0.386230,0.477051,-60.302734,-35.461426,-20.874023
1725,0.162109,-0.308594,0.456543,-34.423828,-49.743652,-5.310059
1726,0.123047,-0.336914,0.445312,-11.962891,-63.232422,6.652832
1727,0.078125,-0.353516,0.439453,0.488281,-70.007324,13.122559
1728,0.047852,-0.449219,0.276855,29.724121,-71.350098,24.597168
1729,0.035645,-0.542969,0.204102,50.842285,-62.622070,28.015137
1730,0.028320,-0.639160,0.204102,70.556641,-47.668457,26.916504
1731,0.092773,-0.689453,0.257812,91.552734,-16.662598,27.160645
1732,0.083984,-0.744629,0.297852,94.055176,-2.075195,31.066895
1733,0.076660,-0.865234,0.420410,71.960449,10.437012,36.987305
1734,0.076172,-0.933594,0.478027,46.569824,9.216309,42.480469
1735,0.066406,-1.054688,0.483398,20.690918,1.953125,46.936035
1736,0.068848,-1.163086,0.455078,4.150391,-7.263184,46.691895
1737,0.112793,-1.177246,0.570312,-17.944336,-11.474609,27.587891
1738,0.093262,-1.119141,0.764648,-33.081055,-10.314941,17.822266
1739,0.170898,-1.108887,1.185547,-43.945312,-39.978027,-24.963379
1740,0.435059,-1.007324,1.066895,-63.415527,-44.250488,-27.648926
1741,0.626953,-1.118652,0.587402,-67.321777,-20.996094,-19.348145
1742,0.600586,-1.058105,0.476074,6.896973,8.605957,13.793945
1743,0.463867,-1.138672,0.518555,41.442871,-2.197266,20.141602
1744,0.340332,-1.245117,0.550293,68.969727,-14.831543,19.287109
1745,0.261230,-1.422363,0.638672,98.449707,-22.094727,13.671875
1746,0.183594,-1.524414,0.711426,90.393066,-15.869141,10.620117
1747,0.120605,-1.224609,0.642090,67.382812,-14.343262,25.512695
1748,0.068359,-1.175293,0.510742,48.828125,-0.793457,47.607422
1749,-0.013672,-1.147461,0.429688,31.555176,14.221191,64.025879
1750,-0.085449,-1.091309,0.372070,19.714355,20.751953,78.735352
1751,-0.208008,-1.084473,0.333984,11.596680,17.395020,93.566895
1752,-0.493164,-1.081055,0.377930,-27.709961,-16.662598,112.792969
1753,-0.631836,-1.136719,0.321777,-57.434082,-45.043945,110.534668
1754,-0.730469,-1.149414,0.217773,-81.848145,-76.782227,101.745605
1755,-0.770020,-1.160645,-0.162598,-118.225098,-100.769043,64.697266
1756,-0.731445,-1.003906,-0.182617,-133.361816,-83.923340,42.236328
1757,-0.680664,-0.879395,-0.170898,-147.277832,-62.011719,20.385742
1758,-0.371094,-0.667969,-0.228516,-130.920410,-19.897461,-11.230469
1759,-0.228027,-0.574707,-0.244629,-106.018066,2.014160,-15.869141
1760,-0.132324,-0.528809,-0.282227,-76.660156,23.681641,-18.859863
1761,0.072266,-0.538574,-0.293457,8.972168,68.298340,-25.939941
1762,0.136719,-0.559570,-0.228516,58.898926,96.862793,-21.789551
1763,0.152832,-0.582031,-0.010254,99.914551,127.258301,-17.211914
1764,0.183594,-0.544434,0.667969,85.815430,142.028809,-2.807617
1765,0.250000,-0.555664,0.835449,38.513184,126.037598,9.094238
1766,0.288086,-0.610352,0.886719,-8.850098,95.458984,22.644043
1767,0.276367,-0.702637,0.813477,-38.574219,56.640625,28.442383
1768,0.175293,-0.739746,0.541504,-33.996582,-20.568848,14.099121
1769,0.094238,-0.707520,0.402344,-21.545410,-38.818359,4.150391
1770,-0.153320,-0.668457,0.303711,-15.869141,-39.672852,-20.446777
1771,-0.312500,-0.712891,0.312012,-12.878418,-31.555176,-36.987305
1772,-0.376465,-0.683594,0.361816,-9.338379,-17.456055,-57.739258
1773,-0.367676,-0.657715,0.438477,-7.690430,-2.746582,-71.533203
1774,-0.325195,-0.733887,0.509277,3.784180,16.540527,-77.697754
1775,-0.264648,-0.798340,0.565918,11.169434,19.165039,-69.458008
1776,-0.181152,-0.882324,0.618652,13.916016,19.226074,-61.096191
1777,-0.047852,-0.920898,0.714355,7.873535,20.019531,-55.175781
1778,0.419434,-0.911621,1.292480,-53.466797,4.943848,-34.851074
1779,0.639648,-1.247070,1.305664,-104.492188,-15.686035,-21.240234
1780,0.666992,-1.453613,0.944336,-116.394043,-28.259277,-2.990723
1781,-0.104980,-1.529785,0.236816,-17.944336,-42.785645,26.306152
1782,-0.262695,-1.330566,0.196289,43.884277,-42.846680,-11.169434
1783,-0.286621,-1.136230,0.137695,79.284668,-37.597656,-53.710938
1784,-0.273926,-1.056641,0.146484,87.707520,-22.460938,-86.608887
1785,-0.075195,-1.104980,0.312988,82.031250,-8.178711,-99.121094
1786,0.160156,-1.189453,0.244141,81.481934,-2.258301,-62.683105
1787,-0.007812,-1.446777,0.483398,32.836914,5.065918,60.852051
1788,-0.188965,-1.559570,0.288574,9.582520,-3.845215,70.739746
1789,-0.255371,-1.469238,0.144531,1.647949,-13.854980,61.096191
1790,-0.332031,-1.332031,0.065918,-13.732910,-36.376953,31.860352
1791,-0.227539,-1.185059,-0.098633,-26.306152,-35.461426,4.943848
1792,-0.126465,-1.080566,-0.136719,-34.912109,-30.151367,-15.991211
1793,-0.045898,-0.942383,-0.203125,-45.959473,0.427246,-50.903320
1794,-0.001465,-0.882812,-0.254883,-43.640137,14.648438,-59.082031
1795,-0.032227,-0.896973,-0.305664,-33.325195,26.550293,-55.664062
1796,-0.129883,-1.007812,-0.285156,14.221191,18.310547,-28.381348
1797,-0.168457,-1.060059,-0.190430,20.812988,20.690918,-15.747070
1798,-0.192871,-1.104980,0.004883,8.850098,24.658203,-8.361816
1799,-0.123047,-0.957031,0.197266,-29.479980,13.977051,-4.882812
1800,-0.055176,-0.894531,0.149902,-40.832520,14.953613,-11.779785
1801,0.153809,-0.612305,0.294434,-55.114746,31.372070,-26.000977
1802,0.139648,-0.586426,0.759766,-89.233398,53.710938,-29.663086
1803,0.177734,-0.605469,0.563477,-119.750977,48.095703,-37.292480
1804,0.224121,-0.530273,0.341309,-106.018066,51.635742,-39.978027
1805,0.188965,-0.345703,0.569824,-21.606445,14.526367,-14.526367
1806,0.134766,-0.319824,0.640137,0.366211,1.831055,-2.563477
1807,0.052734,-0.339355,0.729980,16.784668,-16.906738,7.080078
1808,-0.001465,-0.385254,0.613770,28.015137,-51.635742,21.118164
1809,-0.023438,-0.468262,0.536133,31.982422,-56.091309,27.587891
1810,-0.055664,-0.666992,0.338867,49.072266,-50.109863,42.358398
1811,-0.065918,-0.782227,0.328613,61.828613,-43.518066,51.330566
1812,-0.060547,-0.851074,0.412598,67.504883,-43.762207,60.607910
1813,-0.045898,-0.919922,0.437012,65.063477,-50.415039,68.542480
1814,-0.039062,-1.126465,0.362305,37.597656,-60.058594,59.997559
1815,-0.015137,-1.187012,0.271973,19.592285,-55.419922,45.471191
1816,0.020020,-1.284668,0.104004,15.869141,-39.001465,27.038574
1817,0.182129,-1.353027,0.296387,41.137695,-5.554199,-14.770508
1818,0.311035,-1.310547,0.377930,39.184570,8.605957,-28.259277
1819,0.411133,-1.264160,0.459961,31.494141,24.108887,-36.560059
1820,0.528320,-1.189941,0.626465,-1.831055,37.109375,-26.306152
1821,0.516602,-1.261719,0.532715,5.371094,26.245117,-17.700195
1822,0.528809,-1.293457,0.525879,26.245117,10.192871,-12.634277
1823,0.396484,-1.534180,0.571289,62.255859,-10.498047,-13.488770
1824,0.354980,-1.624512,0.614258,73.425293,-18.554688,-16.052246
1825,0.310547,-1.617188,0.637207,81.237793,-26.245117,-11.718750
1826,0.136719,-1.259277,0.689941,51.269531,-30.395508,49.499512
1827,0.010742,-1.216309,0.648926,15.930176,-25.085449,71.472168
1828,-0.110352,-1.175293,0.577637,-17.028809,-23.254395,79.956055
1829,-0.208496,-1.124512,0.484375,-36.132812,-28.259277,78.308105
1830,-0.387695,-1.019043,0.316895,-60.302734,-52.490234,79.101562
1831,-0.503418,-1.087891,0.180664,-70.861816,-59.143066,78.857422
1832,-0.591797,-1.081055,0.107910,-78.430176,-60.607910,71.350098
1833,-0.641113,-0.841309,-0.000488,-94.116211,-56.701660,62.988281
1834,-0.640137,-0.732910,-0.083008,-96.130371,-51.635742,63.720703
1835,-0.613770,-0.712891,-0.200684,-90.942383,-33.569336,58.166504
1836,-0.552246,-0.713379,-0.254395,-64.636230,-1.464844,23.681641
1837,-0.460449,-0.687988,-0.286621,-42.419434,21.606445,2.258301
1838,-0.330566,-0.654297,-0.298828,-14.343262,40.405273,-13.732910
1839,-0.104492,-0.648926,-0.099121,47.363281,60.058594,-29.357910
1840,0.070801,-0.629883,-0.026367,82.641602,65.185547,-23.132324
1841,0.193848,-0.650391,0.216309,106.933594,77.087402,-5.798340
1842,0.195312,-0.668945,0.663574,68.725586,87.463379,16.052246
1843,0.243164,-0.650391,0.732910,20.996094,81.298828,24.169922
1844,0.309082,-0.670410,0.601562,-13.427734,72.326660,34.057617
1845,0.354980,-0.738281,0.582031,-52.734375,41.503906,46.875000
1846,0.366699,-0.735840,0.496094,-65.429688,16.357422,47.851562
1847,0.342773,-0.742676,0.367188,-67.443848,-8.300781,48.095703
1848,0.247559,-0.796875,0.206055,-58.593750,-28.015137,42.724609
1849,0.011719,-0.767578,0.014648,-23.986816,-38.146973,20.568848
1850,-0.126953,-0.785645,-0.051270,-0.732422,-37.231445,5.737305
1851,-0.317383,-0.842285,0.089355,37.536621,-18.188477,-35.949707
1852,-0.372070,-0.806641,0.220703,46.264648,-9.765625,-53.649902
1853,-0.440430,-0.845703,0.374512,44.860840,-3.234863,-69.946289
1854,-0.445312,-0.903809,0.411621,34.606934,10.925293,-88.806152
1855,-0.330078,-1.000488,0.559570,-12.756348,50.170898,-106.750488
1856,-0.224609,-1.020020,0.524414,-27.282715,66.467285,-111.999512
1857,0.402344,-1.066895,0.938477,-17.456055,94.238281,-115.844727
1858,1.030762,-1.172852,1.382324,-24.047852,99.365234,-100.036621
1859,1.062012,-1.112305,1.578125,-91.613770,29.907227,26.123047
1860,-0.224121,-1.402832,0.307617,-40.954590,-5.371094,26.550293
1861,-0.345703,-1.228027,0.185059,22.277832,-14.831543,-4.943848
1862,-0.359863,-1.048340,0.226074,57.983398,-17.028809,-29.968262
1863,-0.414062,-1.138184,0.321777,70.617676,-20.751953,-64.575195
1864,-0.143555,-1.331055,0.407715,75.195312,-21.179199,-21.972656
1865,-0.204102,-1.429688,0.552246,55.786133,-21.301270,20.507812
