order,ax,ay,az,gx,gy,gz
0,-0.047363,-0.549805,0.880859,7.629395,-12.145996,3.173828
1,-0.055176,-0.551270,0.919434,7.995605,-12.512207,3.601074
2,-0.014160,-0.560547,0.971680,1.464844,-21.240234,1.708984
3,-0.022949,-0.564453,0.917480,3.234863,-21.301270,0.305176
4,-0.012695,-0.548828,0.899902,12.268066,-19.104004,-0.671387
5,0.026367,-0.477539,0.962891,6.530762,-11.474609,0.793457
6,0.050293,-0.482422,0.987305,-7.751465,-5.371094,6.164551
7,0.055176,-0.482422,0.988770,-16.540527,-2.624512,6.713867
8,0.074219,-0.464844,0.945312,-14.282227,-3.906250,1.464844
9,0.048340,-0.324219,0.961914,-5.065918,8.544922,11.718750
10,0.028809,-0.480469,0.993164,-10.681152,12.084961,23.315430
11,0.047852,-0.615723,0.894531,-18.615723,22.521973,22.216797
12,-0.006836,-0.576172,0.858887,-44.860840,51.696777,8.850098
13,-0.091309,-0.477539,0.770020,-52.978516,68.786621,3.723145
14,-0.123047,-0.398438,0.377930,-52.917480,102.111816,0.244141
15,0.036133,-0.322754,0.620605,-43.518066,161.865234,18.005371
16,-0.110352,-0.274902,1.080566,-15.625000,162.170410,47.363281
17,-0.266113,-0.509766,1.628418,29.846191,90.881348,52.795410
18,-0.296875,-0.481934,1.104980,78.308105,-82.214355,13.732910
19,-0.090332,-0.429688,0.867676,116.638184,-113.464355,15.991211
20,0.019531,-0.446289,0.775391,138.427734,-117.004395,25.329590
21,0.073730,-0.393555,0.785645,122.497559,-82.702637,17.639160
22,0.070801,-0.365234,0.777832,92.712402,-55.114746,6.530762
23,0.089844,-0.333496,0.822266,64.270020,-31.005859,2.136230
24,0.066406,-0.358887,0.937012,42.541504,-15.258789,2.319336
25,0.006348,-0.375488,0.861328,3.356934,-24.353027,-8.605957
26,0.060059,-0.326172,0.792480,0.122070,-5.004883,-13.000488
27,0.088379,-0.289062,0.816895,2.563477,4.516602,-14.221191
28,0.085449,-0.250488,0.882812,8.850098,8.239746,-12.695312
29,0.096680,-0.243164,0.984375,11.230469,5.798340,-12.207031
30,0.111816,-0.268066,0.974121,14.404297,2.502441,-13.122559
31,0.129395,-0.265137,0.956055,20.996094,0.366211,-14.221191
32,0.135254,-0.187012,0.939941,26.123047,-0.610352,-13.854980
33,0.165039,-0.144043,0.901855,18.493652,4.516602,-10.620117
34,0.178711,-0.114746,0.877930,5.310059,14.770508,-4.943848
35,0.165039,-0.134766,0.845703,-10.559082,27.282715,2.136230
36,0.073242,-0.207520,0.933594,-11.901855,41.320801,18.310547
37,0.023438,-0.270996,0.967285,-8.117676,34.057617,22.521973
38,-0.000977,-0.307617,0.960449,-4.394531,25.817871,23.803711
39,-0.029297,-0.334473,0.947754,5.737305,7.568359,23.803711
40,-0.037598,-0.330078,0.909180,6.835938,-1.892090,23.071289
41,-0.034180,-0.330078,0.832520,6.896973,-7.446289,22.277832
42,-0.031250,-0.401367,0.726562,18.554688,-10.009766,16.967773
43,-0.035156,-0.431641,0.695312,28.259277,-10.253906,11.535645
44,-0.025879,-0.400879,0.659668,37.719727,-7.446289,5.798340
45,-0.013672,-0.346191,0.649902,39.062500,7.873535,-2.563477
46,0.018066,-0.244629,0.647461,32.592773,18.615723,-3.906250
47,0.028320,-0.236328,0.648926,25.878906,31.433105,-3.173828
48,0.039062,-0.251953,0.686523,23.986816,43.090820,-2.319336
49,0.002441,-0.269043,0.871094,34.179688,52.856445,-0.061035
50,-0.031738,-0.291504,0.948242,39.672852,48.583984,-0.549316
51,-0.047852,-0.271973,0.994629,56.823730,37.658691,-1.037598
52,-0.027832,-0.245117,1.013184,60.974121,35.339355,-0.610352
53,-0.006836,-0.203613,1.031250,58.776855,37.658691,0.732422
54,-0.004883,-0.137207,1.219238,33.691406,47.851562,11.657715
55,-0.028320,-0.180176,1.268555,23.193359,45.288086,19.165039
56,-0.038086,-0.229980,1.291504,26.672363,35.095215,26.611328
57,-0.075684,-0.295898,1.335449,34.118652,21.423340,31.677246
58,-0.114746,-0.323242,1.371582,29.724121,-5.920410,26.245117
59,-0.118164,-0.276855,1.331543,22.216797,-18.859863,25.268555
60,-0.159668,-0.220703,1.379395,10.375977,-36.132812,23.315430
61,-0.158203,-0.176758,1.415039,-11.474609,-59.875488,20.019531
62,0.005371,-0.302734,0.996094,-41.748047,-71.228027,18.005371
63,0.077148,-0.381836,0.796875,-35.888672,-50.292969,22.460938
64,0.057617,-0.413574,0.704590,-20.996094,-22.399902,26.916504
65,-0.019043,-0.347656,0.721191,-7.263184,6.286621,29.357910
66,-0.210449,-0.196289,0.908203,-12.817383,58.044434,30.517578
67,-0.224121,-0.158691,0.970703,-20.324707,74.890137,35.217285
68,-0.242676,-0.184570,0.999023,-25.451660,81.787109,43.884277
69,-0.396973,-0.352539,1.032715,-31.677246,88.195801,58.776855
70,-0.492188,-0.431152,1.044434,-30.883789,87.829590,55.236816
71,-0.561523,-0.467285,1.066406,-29.174805,84.716797,45.532227
72,-0.590820,-0.484863,1.083496,-27.221680,79.284668,32.714844
73,-0.590820,-0.492188,1.068359,-23.437500,71.472168,18.005371
74,-0.517578,-0.450684,1.002441,0.793457,55.908203,-8.728027
75,-0.480957,-0.400391,0.998535,18.615723,49.072266,-17.395020
76,-0.462891,-0.337402,1.010254,34.729004,42.541504,-24.658203
77,-0.413086,-0.215332,1.048340,57.739258,30.700684,-36.254883
78,-0.358398,-0.172852,1.081543,64.331055,22.460938,-40.771484
79,-0.286133,-0.123047,1.102539,65.673828,12.573242,-42.724609
80,-0.181641,-0.068359,1.055176,56.335449,-2.319336,-37.719727
81,-0.156738,-0.051758,1.022949,50.476074,-4.272461,-33.447266
82,-0.149414,-0.040039,1.003906,42.846680,-4.028320,-28.930664
83,-0.187988,-0.104492,1.011230,28.869629,-2.502441,-24.230957
84,-0.186523,-0.113770,1.006348,21.606445,-7.141113,-24.658203
85,-0.170898,-0.115234,0.968262,14.282227,-13.671875,-26.306152
86,-0.144043,-0.108398,0.906250,8.544922,-18.432617,-27.954102
87,-0.107422,-0.100586,0.819336,18.981934,-16.479492,-25.817871
88,-0.104980,-0.080078,0.852051,26.000977,-15.075684,-24.719238
89,-0.098633,-0.050781,0.905273,25.878906,-14.648438,-22.888184
90,-0.094727,-0.016113,0.956543,9.399414,-17.517090,-14.953613
91,-0.102539,-0.013672,0.951660,3.295898,-22.155762,-8.850098
92,-0.113770,-0.029297,0.932617,-0.427246,-30.761719,-2.868652
93,-0.133789,-0.090332,0.842285,-1.098633,-46.264648,4.272461
94,-0.133789,-0.088379,0.796875,0.244141,-47.058105,8.117676
95,-0.147949,-0.077637,0.780762,-1.037598,-43.395996,13.488770
96,-0.184570,-0.096191,0.788574,-6.713867,-37.048340,18.615723
97,-0.256348,-0.176270,0.756348,-19.409180,-24.902344,22.460938
98,-0.272949,-0.231934,0.761230,-17.028809,-22.155762,21.728516
99,-0.280762,-0.264648,0.756836,-10.925293,-22.033691,17.822266
100,-0.261719,-0.262695,0.776367,10.009766,-19.836426,12.268066
101,-0.256836,-0.252441,0.824707,18.310547,-19.104004,11.962891
102,-0.260254,-0.240234,0.849609,20.935059,-18.432617,11.535645
103,-0.280762,-0.238281,0.890137,10.375977,-9.582520,9.216309
104,-0.290527,-0.237305,0.927734,-0.732422,-2.014160,5.920410
105,-0.276367,-0.236816,0.952637,-11.108398,2.258301,3.662109
106,-0.268066,-0.247559,0.939941,-15.808105,2.197266,3.662109
107,-0.237793,-0.235352,0.918457,-5.981445,3.540039,7.019043
108,-0.245605,-0.208496,0.939941,3.234863,5.554199,11.230469
109,-0.259766,-0.195312,0.990234,9.338379,5.859375,15.686035
110,-0.321777,-0.217773,1.088867,1.770020,1.281738,18.127441
111,-0.348145,-0.246582,1.102051,-9.155273,-3.051758,14.831543
112,-0.357910,-0.291016,1.082031,-19.226074,-7.629395,9.399414
113,-0.342773,-0.312500,1.013184,-19.226074,-10.314941,4.455566
114,-0.316895,-0.266602,0.980469,10.986328,-10.925293,3.540039
115,-0.324219,-0.188477,1.050781,17.333984,-8.850098,3.356934
116,-0.325684,-0.114746,1.132324,10.009766,-8.117676,5.249023
117,-0.373535,-0.097656,1.115723,-25.939941,-6.286621,16.784668
118,-0.424316,-0.143066,1.062500,-41.320801,-1.770020,19.348145
119,-0.447754,-0.196289,0.974121,-49.987793,5.981445,18.371582
120,-0.468750,-0.255859,0.890625,-50.292969,18.310547,13.977051
121,-0.436035,-0.307129,0.805664,-28.808594,55.236816,3.479004
122,-0.438477,-0.314453,0.820312,-21.118164,77.026367,-2.319336
123,-0.612305,-0.271484,1.079590,-24.841309,98.327637,-13.000488
124,-0.403320,-0.161621,1.212402,-40.466309,71.838379,-49.133301
125,-0.243652,-0.069824,1.196289,-16.174316,49.377441,-56.030273
126,-0.113770,0.021484,1.161621,24.047852,29.724121,-56.640625
127,0.026367,0.124512,1.250488,110.839844,-4.577637,-40.771484
128,0.049805,0.183594,1.300293,135.620117,-25.878906,-26.123047
129,0.041016,0.201660,1.331055,141.418457,-44.372559,-9.765625
130,-0.031250,0.072754,1.291504,100.830078,-60.546875,7.019043
131,-0.027832,-0.036621,1.173340,69.702148,-62.561035,6.896973
132,0.017578,-0.165039,0.995117,46.936035,-62.805176,3.479004
133,0.140137,-0.312500,0.703613,43.762207,-30.273438,-18.737793
134,0.164551,-0.294434,0.779297,45.166016,-1.220703,-34.240723
135,0.153320,-0.163086,0.855469,34.912109,24.658203,-47.546387
136,0.134277,-0.005371,0.937012,18.371582,44.067383,-48.095703
137,0.036133,0.115723,1.041504,-19.470215,62.927246,-27.770996
138,-0.015625,0.114258,1.049805,-35.217285,65.795898,-13.671875
139,-0.077637,0.059570,1.055664,-49.011230,63.903809,-1.464844
140,-0.176270,-0.050781,0.962891,-68.847656,50.170898,4.211426
141,-0.207031,-0.065918,0.894531,-67.565918,42.358398,3.051758
142,-0.255859,-0.063965,0.848633,-55.908203,31.921387,3.723145
143,-0.316895,-0.104492,0.815430,-37.475586,16.967773,4.516602
144,-0.378418,-0.077148,0.664551,0.976562,-18.554688,1.464844
145,-0.385742,-0.067871,0.587891,14.709473,-30.212402,-1.342773
146,-0.382324,-0.069336,0.496582,23.620605,-34.729004,-6.347656
147,-0.329102,-0.030762,0.359375,41.931152,-23.437500,-15.319824
148,-0.293457,-0.002441,0.322754,51.391602,-13.916016,-17.028809
149,-0.269043,0.030762,0.294434,60.119629,-1.037598,-16.296387
150,-0.314453,-0.017090,0.383301,58.837891,30.822754,-13.366699
151,-0.305664,-0.060059,0.395996,44.067383,44.799805,-13.000488
152,-0.299316,-0.052734,0.306152,24.353027,61.950684,-12.756348
153,-0.340332,-0.030762,0.221191,10.803223,91.918945,-13.183594
154,-0.448242,0.130371,0.292969,6.896973,142.272949,-15.380859
155,-0.487793,0.203613,0.381348,4.089355,152.343750,-12.390137
156,-0.565430,0.159668,0.447266,-5.493164,158.508301,-12.817383
157,-0.713867,-0.022949,0.537598,11.169434,166.076660,-23.803711
158,-0.781738,-0.074219,0.570801,50.842285,160.766602,-27.770996
159,-0.797852,-0.067871,0.657227,99.914551,149.658203,-29.113770
160,-0.796875,-0.057617,0.751953,135.314941,140.441895,-31.005859
161,-0.701172,0.210449,0.775391,120.788574,161.193848,-31.250000
162,-0.779785,0.231445,0.849121,83.007812,188.903809,-27.343750
163,-0.965332,0.162598,0.958496,33.264160,214.904785,-28.991699
164,-1.311523,0.131348,1.093750,-2.868652,221.923828,-44.738770
165,-1.387695,0.200195,1.174316,20.751953,194.213867,-51.940918
166,-1.353027,0.302246,1.190430,82.092285,122.192383,-57.556152
167,-1.103516,0.451172,1.069336,104.370117,101.196289,-51.452637
168,-1.002441,0.494629,1.030762,112.487793,87.097168,-41.992188
169,-0.942383,0.568359,0.993164,105.529785,84.899902,-29.052734
170,-0.959961,0.531738,1.038574,36.132812,93.444824,8.056641
171,-0.969238,0.364746,0.933105,9.948730,89.904785,26.306152
172,-0.987305,0.175781,0.835449,3.112793,83.374023,36.193848
173,-1.025879,-0.136230,0.755371,17.089844,59.265137,29.418945
174,-0.962891,-0.167480,0.666992,45.593262,36.926270,13.854980
175,-0.919922,-0.176758,0.583496,87.280273,13.427734,-0.976562
176,-0.943848,-0.007812,0.726562,172.546387,-19.592285,-17.395020
177,-0.936523,-0.018555,0.810547,170.410156,-33.935547,-27.404785
178,-0.858887,-0.046387,0.741699,153.442383,-41.381836,-40.283203
179,-0.745117,-0.029297,0.635254,135.253906,-35.827637,-50.720215
180,-0.591309,0.133789,0.564941,100.219727,-8.483887,-61.401367
181,-0.551270,0.230469,0.536621,84.594727,3.601074,-59.936523
182,-0.528809,0.301758,0.512207,75.988770,16.540527,-54.687500
183,-0.539062,0.376465,0.674805,70.007324,35.278320,-35.156250
184,-0.564941,0.360840,0.800293,62.133789,34.851074,-23.498535
185,-0.601074,0.293945,0.891602,46.203613,29.541016,-13.488770
186,-0.664062,0.134277,0.877441,-3.845215,16.601562,-3.906250
187,-0.711426,0.059082,0.801270,-20.202637,12.207031,-2.868652
188,-0.769043,0.004883,0.693359,-22.094727,6.835938,-3.967285
189,-0.815918,-0.002930,0.640625,-7.934570,1.770020,-5.187988
190,-0.872070,-0.016602,0.711426,24.658203,-17.150879,-5.065918
191,-0.885742,-0.066406,0.740234,27.648926,-26.794434,-7.080078
192,-0.882324,-0.119629,0.728027,23.071289,-32.226562,-11.901855
193,-0.842773,-0.123047,0.665039,13.488770,-35.156250,-21.667480
194,-0.839355,-0.104004,0.635742,12.207031,-36.193848,-25.085449
195,-0.830566,-0.070312,0.626465,13.488770,-37.414551,-26.062012
196,-0.834473,-0.050293,0.616699,17.089844,-39.123535,-24.169922
197,-0.846680,-0.057129,0.658203,20.263672,-47.912598,-17.150879
198,-0.852539,-0.021484,0.594238,14.465332,-47.180176,-13.916016
199,-0.859375,0.020996,0.594238,6.530762,-38.818359,-10.314941
200,-0.924316,0.065430,0.621094,-11.840820,-30.029297,2.746582
201,-0.975586,0.024902,0.588867,-17.089844,-28.930664,7.690430
202,-1.042969,-0.053711,0.538086,-17.578125,-25.756836,6.103516
203,-1.095215,-0.042480,0.470215,-4.028320,-14.770508,-15.686035
204,-1.062012,0.051758,0.439453,15.380859,-10.009766,-26.062012
205,-1.010254,0.166016,0.473145,41.564941,-6.958008,-29.968262
206,-1.007324,0.280273,0.644531,71.411133,-6.286621,-20.202637
207,-1.026855,0.263672,0.678711,70.983887,-1.281738,-12.268066
208,-1.068848,0.206543,0.701660,66.101074,8.422852,-6.103516
209,-1.139160,0.025879,0.801758,55.053711,23.803711,-12.695312
210,-1.101074,0.008789,0.831543,55.969238,26.367188,-21.789551
211,-1.053711,0.067383,0.877441,62.927246,27.404785,-25.390625
212,-1.018066,0.173340,0.969238,69.274902,25.817871,-20.629883
213,-1.045898,0.287109,1.196777,52.856445,7.141113,11.657715
214,-1.129395,0.150879,1.269043,19.165039,-6.591797,23.620605
215,-1.185059,-0.004883,1.173340,-29.724121,-18.188477,20.935059
216,-1.152344,-0.078613,0.983887,-73.242188,-23.681641,8.544922
217,-1.020996,-0.032227,0.530273,-107.360840,-19.653320,-26.123047
218,-0.941406,0.066406,0.412598,-92.041016,-16.723633,-40.527344
219,-0.875488,0.178711,0.352539,-63.476562,-19.409180,-47.607422
220,-0.773926,0.286133,0.291992,-2.014160,-32.592773,-44.006348
221,-0.721191,0.261230,0.269531,20.446777,-36.743164,-41.809082
222,-0.659180,0.221191,0.268066,33.142090,-35.156250,-41.076660
223,-0.606445,0.169434,0.278320,35.522461,-28.259277,-41.564941
224,-0.583008,0.139648,0.269043,29.602051,-16.357422,-45.654297
225,-0.530762,0.260742,0.284180,18.737793,15.747070,-64.208984
226,-0.479004,0.367188,0.344238,19.592285,23.193359,-67.749023
227,-0.417969,0.457520,0.390625,21.362305,24.291992,-64.392090
228,-0.340332,0.504395,0.461914,11.474609,22.521973,-41.992188
229,-0.330078,0.460938,0.460449,-2.563477,23.071289,-29.968262
230,-0.326660,0.442383,0.413086,-17.089844,25.451660,-18.371582
231,-0.345703,0.424316,0.355469,-25.512695,29.296875,-4.882812
232,-0.422852,0.354980,0.360352,-26.733398,30.517578,6.896973
233,-0.625488,0.046387,0.370117,-30.761719,11.718750,6.713867
234,-0.656250,-0.043945,0.251953,-19.104004,0.305176,-3.784180
235,-0.653809,-0.050781,0.134766,10.559082,-8.605957,-14.526367
236,-0.638184,0.094238,0.147949,85.876465,-19.897461,-20.996094
237,-0.667480,0.175781,0.184082,107.360840,-20.385742,-17.456055
238,-0.729004,0.205566,0.232910,111.816406,-13.671875,-11.047363
239,-0.832031,0.154297,0.242188,102.966309,0.122070,-4.455566
240,-1.086426,-0.040039,0.240723,84.289551,39.978027,-7.934570
241,-1.173828,-0.019531,0.292969,79.467773,63.903809,-18.005371
242,-1.213379,0.050781,0.422852,75.256348,82.885742,-28.564453
243,-1.149414,0.223633,0.657715,71.166992,94.055176,-29.479980
244,-1.168945,0.181152,0.785156,66.711426,92.285156,-24.291992
245,-1.222168,0.107422,0.898926,61.645508,81.420898,-25.695801
246,-1.114746,0.250977,1.047363,80.139160,7.568359,-40.161133
247,-0.916504,0.541504,0.813477,93.139648,-38.085938,-31.616211
248,-0.672363,0.846191,0.324707,93.322754,-46.203613,-1.525879
249,-0.516113,0.881348,-0.175293,77.392578,1.953125,40.527344
250,-1.420898,0.020508,0.532715,49.011230,161.987305,116.516113
251,-1.903320,-0.707031,1.215820,26.367188,180.297852,82.824707
252,-1.833008,-0.767090,1.468750,10.559082,157.592773,16.113281
253,-1.347168,0.083496,1.801270,20.019531,89.965820,-34.790039
254,-1.287109,0.417480,1.963379,11.596680,31.616211,-19.470215
255,-1.272461,0.556152,1.714355,-24.597168,-31.005859,-0.427246
256,-1.261230,0.535645,1.150879,-75.378418,-72.204590,5.432129
257,-1.309570,0.528809,0.460449,-119.262695,-85.388184,-4.638672
258,-1.069336,0.568359,-0.770020,-129.638672,-52.856445,-60.913086
259,-0.890625,0.505371,-0.696289,-88.562012,-37.536621,-100.280762
260,-0.922363,0.878906,-0.896973,-33.691406,-23.864746,-124.084473
261,-0.725098,1.329102,-0.547363,80.322266,-2.563477,-43.029785
262,-0.572266,0.843262,-0.436035,114.440918,-14.709473,15.869141
263,-0.633789,0.181152,-0.536133,140.625000,-13.732910,29.174805
264,-0.616699,-0.279785,-0.482910,161.254883,9.460449,6.286621
265,-0.729980,-0.323730,0.300781,195.068359,65.917969,-51.879883
266,-0.811035,-0.213379,0.837402,200.012207,56.396484,-66.040039
267,-0.802246,-0.234375,1.217285,191.162109,25.329590,-77.148438
268,-0.504395,-0.104492,1.051270,153.259277,-36.132812,-98.388672
269,-0.321777,0.189453,0.864746,133.544922,-43.945312,-104.980469
270,-0.106934,0.518555,0.589844,106.689453,-39.306641,-100.891113
271,0.078125,0.735840,0.368652,81.726074,-16.723633,-78.247070
272,-0.046875,0.694824,0.615234,44.311523,30.822754,1.220703
273,-0.295898,0.396484,0.779785,12.878418,35.461426,31.188965
274,-0.478516,0.115234,0.773438,-11.108398,33.142090,46.752930
275,-0.619629,-0.148438,0.681152,-12.207031,23.986816,54.931641
276,-0.802734,-0.579102,0.582031,52.917480,-6.042480,68.115234
277,-0.799805,-0.622070,0.617676,87.402344,-14.221191,66.894531
278,-0.944824,-0.654785,0.847656,105.346680,-0.854492,86.975098
279,-1.147949,-0.831543,1.035645,80.749512,10.498047,94.299316
280,-1.292969,-1.168945,1.211426,-26.184082,31.738281,68.786621
281,-1.262207,-1.239258,1.116211,-60.852051,30.944824,49.804688
282,-1.189453,-1.097656,0.958984,-71.411133,26.489258,32.409668
283,-1.108398,-0.799316,1.034180,-83.679199,24.719238,25.268555
284,-1.106934,-0.718262,1.006348,-97.351074,23.315430,28.259277
285,-1.153320,-0.659180,1.025879,-114.685059,24.536133,27.770996
286,-1.271973,-0.391113,0.961914,-178.833008,45.227051,22.338867
287,-1.331055,-0.264648,0.897949,-236.572266,69.396973,12.145996
288,-1.363770,-0.077637,0.778809,-279.296875,91.308594,-0.122070
289,-1.471191,0.041504,0.672852,-275.146484,99.731445,-21.240234
290,-1.515625,0.098145,0.639648,-220.825195,88.073730,-35.583496
291,-1.542969,0.185547,0.755371,-147.521973,68.054199,-44.677734
292,-1.449707,0.238281,1.147949,-49.804688,8.300781,-55.541992
293,-1.267090,0.306641,1.190918,-43.640137,-10.803223,-64.636230
294,-1.061035,0.434570,1.250488,-59.509277,-20.385742,-71.166992
295,-0.841797,0.611328,1.277344,-91.613770,-28.320312,-70.495605
296,-0.504883,0.824707,1.110352,-175.720215,-36.437988,-39.245605
297,-0.521484,0.821777,1.007812,-206.542969,-34.362793,-9.521484
298,-0.726562,0.694336,0.991211,-221.435547,-36.743164,18.920898
299,-0.992676,0.532715,1.060059,-228.942871,-67.321777,39.184570
300,-1.244629,0.108887,0.957520,-223.083496,-92.468262,17.089844
301,-1.015137,0.113281,0.727051,-206.481934,-105.285645,-19.958496
302,-0.567383,0.466797,0.446777,-154.174805,-84.228516,-58.105469
303,-0.550293,0.631836,0.571777,-120.361328,-66.345215,-56.579590
304,-0.572266,0.663574,0.818359,-87.585449,-67.626953,-43.701172
305,-0.588379,0.540527,0.976562,-65.734863,-80.627441,-29.418945
306,-0.535156,0.359863,1.194336,-69.396973,-80.993652,-18.493652
307,-0.520508,0.366699,1.327148,-96.984863,-76.171875,-16.357422
308,-0.529785,0.382812,1.385742,-133.972168,-75.195312,-16.296387
309,-0.618652,0.411621,1.303711,-175.231934,-86.181641,-19.531250
310,-0.714844,0.434082,1.328613,-170.227051,-97.839355,-22.155762
311,-0.750000,0.467773,1.359863,-158.081055,-119.628906,-26.245117
312,-0.725586,0.547363,1.298340,-141.296387,-144.470215,-26.672363
313,-0.616211,0.652832,1.220703,-130.187988,-170.104980,-7.141113
314,-0.636230,0.625488,1.153320,-142.517090,-170.043945,3.967285
315,-0.703613,0.593750,1.112305,-150.573730,-164.062500,12.084961
316,-0.880371,0.370117,1.211914,-143.920898,-177.612305,13.061523
317,-0.934570,0.259766,1.165039,-127.868652,-193.969727,4.150391
318,-0.910645,0.219238,1.087891,-100.830078,-210.632324,-6.286621
319,-0.746094,0.427734,1.003418,-46.325684,-232.238770,-7.202148
320,-0.731934,0.526367,1.034180,-35.583496,-234.802246,10.986328
321,-0.794922,0.532227,1.081543,-37.414551,-236.389160,36.743164
322,-0.917480,0.434570,1.065918,-44.555664,-237.609863,61.401367
323,-1.177246,0.071777,1.028809,-60.607910,-235.351562,79.589844
324,-1.239258,-0.104980,0.999512,-79.406738,-227.661133,71.350098
325,-1.142090,-0.253418,0.738281,-134.216309,-198.364258,34.057617
326,-1.041992,-0.194824,0.563477,-138.671875,-177.734375,17.395020
327,-0.988770,-0.162109,0.528809,-119.567871,-161.926270,8.422852
328,-0.954102,-0.266602,0.582031,-56.213379,-164.794922,-4.577637
329,-0.854004,-0.307617,0.514648,-19.104004,-171.813965,-11.291504
330,-0.726562,-0.273926,0.466797,12.634277,-165.893555,-16.723633
331,-0.565430,-0.066406,0.621094,27.832031,-127.563477,-15.136719
332,-0.499023,0.050293,0.698242,15.869141,-111.328125,-6.469727
333,-0.437012,0.105957,0.746094,-0.549316,-99.182129,8.056641
334,-0.412109,0.069824,0.759277,-17.028809,-89.050293,24.780273
335,-0.504395,-0.165039,0.709961,-28.137207,-72.387695,44.982910
336,-0.508789,-0.228027,0.679199,-21.911621,-68.298340,46.264648
337,-0.466797,-0.248535,0.652344,-13.305664,-64.575195,45.166016
338,-0.413086,-0.226562,0.624023,-7.019043,-59.204102,44.494629
339,-0.288086,-0.177246,0.662109,-0.793457,-46.203613,52.001953
340,-0.260742,-0.186523,0.701660,-10.986328,-38.208008,57.922363
341,-0.262695,-0.235352,0.734863,-28.198242,-29.479980,62.866211
342,-0.285156,-0.322754,0.736328,-41.687012,-26.062012,64.758301
343,-0.312012,-0.517578,0.689453,-26.733398,-35.461426,57.495117
344,-0.285645,-0.568359,0.681641,-11.108398,-44.494629,49.316406
345,-0.234375,-0.581543,0.668457,0.610352,-50.720215,39.733887
346,-0.175293,-0.554688,0.647949,4.699707,-50.964355,30.578613
347,-0.115723,-0.474121,0.641113,3.845215,-40.527344,17.333984
348,-0.114746,-0.448242,0.689941,1.647949,-38.513184,12.390137
349,-0.112793,-0.419922,0.708496,1.831055,-43.945312,8.911133
350,-0.047852,-0.421875,0.630859,11.901855,-60.913086,8.728027
351,0.009277,-0.410645,0.596680,16.052246,-60.363770,9.033203
352,0.037598,-0.401367,0.601562,14.892578,-54.565430,10.070801
353,0.015625,-0.404297,0.623047,6.469727,-43.457031,13.671875
354,0.001465,-0.424805,0.647949,0.671387,-35.949707,14.404297
355,0.018066,-0.410156,0.689453,-10.803223,-26.123047,16.906738
356,0.023926,-0.420410,0.693359,-12.756348,-26.550293,19.592285
357,0.053223,-0.428711,0.651855,-1.159668,-29.357910,26.672363
358,0.043945,-0.437500,0.677246,6.286621,-27.282715,32.287598
359,0.016113,-0.469727,0.727539,5.187988,-24.902344,36.926270
360,-0.004395,-0.559570,0.726074,-14.831543,-13.366699,38.757324
361,0.000977,-0.625000,0.708008,-20.385742,-5.798340,35.400391
362,0.040527,-0.653809,0.709473,-13.793945,-0.305176,31.433105
363,0.091797,-0.572754,0.853516,16.662598,8.850098,32.348633
364,0.074219,-0.510742,0.973633,24.658203,11.718750,36.010742
365,0.039551,-0.471191,1.107422,20.629883,14.526367,40.588379
366,-0.037109,-0.576660,1.333008,-26.245117,13.610840,40.466309
367,-0.086914,-0.687500,1.354980,-45.349121,5.676270,33.020020
368,-0.115234,-0.749023,1.344238,-42.480469,-14.465332,24.108887
369,-0.057617,-0.675781,1.187500,17.700195,-80.993652,15.747070
370,0.047363,-0.590332,1.074707,53.649902,-108.459473,15.747070
371,0.152344,-0.508301,0.962402,74.462891,-115.722656,16.601562
372,0.319336,-0.335449,0.903320,63.171387,-75.500488,19.287109
373,0.347656,-0.256348,0.978027,40.710449,-46.875000,26.123047
374,0.242676,-0.188477,1.100586,4.028320,-12.939453,46.447754
375,0.184570,-0.184570,1.146484,-3.906250,-7.507324,54.870605
376,0.161621,-0.186523,1.177734,-9.399414,-7.568359,61.828613
377,0.143555,-0.190430,1.186523,-15.502930,-10.864258,67.810059
378,0.080078,-0.227051,1.098633,-29.663086,-19.836426,71.350098
379,0.060059,-0.250977,1.034668,-27.893066,-25.329590,68.786621
380,0.081055,-0.318359,0.939941,-10.559082,-33.569336,61.401367
381,0.074219,-0.357910,0.921875,-0.366211,-36.376953,57.739258
382,0.046875,-0.397461,0.892578,8.666992,-38.146973,53.100586
383,0.009277,-0.428711,0.833984,16.052246,-31.921387,38.452148
384,0.012207,-0.410645,0.837891,15.380859,-23.437500,30.700684
385,0.026855,-0.364258,0.877441,14.587402,-16.052246,25.573730
386,0.037598,-0.295410,0.941406,12.756348,-12.634277,24.658203
387,0.042480,-0.250488,0.978516,7.324219,-14.221191,26.916504
388,0.087402,-0.236816,0.934082,-5.493164,-22.338867,33.447266
389,0.092773,-0.269043,0.870605,-5.004883,-28.015137,33.630371
390,0.107910,-0.259766,0.787598,23.437500,-39.794922,34.729004
391,0.107910,-0.239258,0.799316,34.484863,-43.395996,37.597656
392,0.084473,-0.241211,0.829590,31.616211,-41.870117,41.503906
393,0.050293,-0.301270,0.835938,-7.324219,-29.785156,44.006348
394,0.052246,-0.325684,0.789551,-21.911621,-25.695801,41.931152
395,0.067871,-0.341309,0.778320,-23.925781,-26.367188,40.710449
396,0.081543,-0.385742,0.753906,-3.356934,-41.503906,38.757324
397,0.109375,-0.388184,0.718750,15.380859,-50.354004,38.879395
398,0.160645,-0.351074,0.701172,33.447266,-41.870117,43.762207
399,0.158691,-0.329590,0.753418,19.104004,-24.475098,46.691895
400,0.145020,-0.347168,0.811523,-6.286621,-6.286621,48.950195
401,0.127441,-0.388672,0.825684,-28.381348,7.629395,50.292969
402,0.087402,-0.514160,0.849609,-34.667969,18.127441,50.781250
403,0.059082,-0.576660,0.878906,-22.399902,17.700195,47.241211
404,0.022461,-0.627441,1.047852,4.394531,10.620117,36.315918
405,0.011230,-0.611816,1.125977,7.934570,3.967285,29.968262
406,0.016113,-0.574707,1.154297,5.432129,-4.516602,23.681641
407,0.031738,-0.516602,1.104004,2.502441,-16.662598,18.493652
408,0.115234,-0.441406,0.962402,4.028320,-17.395020,20.080566
409,0.153320,-0.425293,0.923828,2.746582,-13.183594,24.230957
410,0.157715,-0.444336,0.890137,-3.417969,-3.723145,29.052734
411,0.110352,-0.505859,0.921875,-11.718750,24.169922,30.700684
412,0.089355,-0.509277,1.016602,-11.840820,32.409668,31.066895
413,0.058105,-0.515137,1.085938,-11.291504,32.836914,32.714844
414,-0.062988,-0.531250,1.102051,0.000000,27.343750,31.799316
415,-0.101562,-0.526367,1.161621,5.615234,25.085449,28.625488
416,-0.110840,-0.481445,1.235840,3.173828,19.958496,26.977539
417,-0.086426,-0.470215,1.219727,-23.193359,3.356934,30.273438
418,-0.092285,-0.484863,1.105469,-30.456543,-1.831055,29.296875
419,-0.106445,-0.465332,1.028809,-29.174805,-3.112793,26.428223
420,-0.099609,-0.383789,0.960938,-20.996094,-5.554199,18.310547
421,-0.053223,-0.353027,0.931641,-17.456055,-5.615234,16.601562
422,-0.022461,-0.347656,0.890137,-12.817383,-3.662109,16.418457
423,-0.030762,-0.336426,0.914551,1.586914,-3.479004,14.709473
424,-0.041504,-0.355957,0.951172,10.253906,-10.986328,13.366699
425,-0.047852,-0.385742,0.960449,15.869141,-19.836426,11.535645
426,-0.041504,-0.406250,0.883301,24.780273,-35.888672,6.408691
427,-0.028809,-0.368652,0.820801,30.822754,-41.198730,5.126953
428,-0.006836,-0.325195,0.766113,35.461426,-43.518066,6.469727
429,0.038574,-0.283691,0.754395,33.020020,-39.184570,18.188477
430,0.014160,-0.375000,0.792969,9.948730,-31.005859,29.235840
431,-0.005371,-0.451172,0.800781,-4.821777,-28.747559,29.052734
432,-0.018066,-0.502441,0.777344,-14.648438,-30.334473,24.658203
433,0.012207,-0.577148,0.675781,-12.023926,-40.161133,9.399414
434,0.086914,-0.521973,0.598145,-4.211426,-39.123535,2.441406
435,0.154785,-0.414551,0.556641,5.859375,-29.663086,2.136230
436,0.176758,-0.309570,0.691895,6.347656,-6.164551,14.160156
437,0.163086,-0.315918,0.779785,-4.211426,3.417969,20.812988
438,0.057617,-0.433105,0.953125,-25.695801,3.906250,30.639648
439,0.006836,-0.498047,0.972656,-27.221680,-8.361816,30.517578
440,-0.018555,-0.545410,0.963379,-19.653320,-24.414062,27.770996
441,0.019531,-0.545898,0.853027,7.507324,-51.513672,22.094727
442,0.043945,-0.554688,0.814941,17.272949,-53.283691,20.812988
443,0.065918,-0.571777,0.839355,21.362305,-48.828125,18.493652
444,0.082520,-0.560547,0.882812,18.188477,-42.724609,15.625000
445,0.110840,-0.498047,0.918457,8.911133,-34.973145,13.427734
446,0.156738,-0.476074,0.927246,10.437012,-34.912109,15.197754
447,0.229004,-0.435547,0.962402,13.366699,-31.127930,23.864746
448,0.221680,-0.430664,1.022461,11.413574,-29.785156,28.991699
449,0.203613,-0.436035,1.060547,7.019043,-31.616211,33.264160
450,0.187012,-0.432617,1.053711,9.643555,-41.870117,42.785645
451,0.165527,-0.480957,1.011230,12.512207,-44.372559,45.715332
452,0.183594,-0.502930,0.992676,11.718750,-43.029785,47.546387
453,0.183105,-0.517090,0.944336,8.178711,-37.658691,49.255371
454,0.164062,-0.575195,0.890625,3.540039,-16.479492,44.372559
455,0.174805,-0.551270,0.915527,1.525879,-2.075195,38.940430
456,0.176758,-0.490234,0.970703,-2.990723,11.535645,35.766602
457,0.131836,-0.387695,1.068359,-12.695312,29.235840,32.653809
458,0.138184,-0.342773,1.132812,-19.531250,31.799316,31.250000
459,0.166992,-0.312500,1.182617,-27.587891,26.855469,30.090332
460,0.196777,-0.287598,1.168945,-32.104492,15.502930,30.151367
461,0.254883,-0.251953,0.984375,-11.230469,-14.160156,30.212402
462,0.283203,-0.203613,0.938965,8.911133,-25.146484,33.447266
463,0.284180,-0.194824,0.878418,31.127930,-40.161133,47.302246
464,0.260254,-0.240234,0.835449,31.250000,-40.039062,53.405762
465,0.220703,-0.292969,0.792480,26.000977,-34.545898,55.847168
466,0.186035,-0.335938,0.755371,17.700195,-25.512695,54.138184
467,0.139160,-0.369629,0.742676,13.061523,-3.906250,42.541504
468,0.124023,-0.360352,0.808105,11.108398,3.051758,36.315918
469,0.127441,-0.282715,0.864258,3.112793,7.446289,29.113770
470,0.132812,-0.265625,0.875977,0.427246,7.995605,29.968262
471,0.140137,-0.256836,0.881348,0.061035,7.019043,32.653809
472,0.131836,-0.247070,0.869629,3.295898,2.319336,39.245605
473,0.126953,-0.276367,0.866211,3.540039,-0.366211,41.687012
474,0.134766,-0.296875,0.857422,-1.159668,0.244141,43.151855
475,0.136230,-0.325684,0.849121,-9.521484,3.784180,43.334961
476,0.117676,-0.398926,0.854980,-15.197754,6.835938,41.992188
477,0.109863,-0.403320,0.855469,-11.474609,3.540039,40.832520
478,0.109863,-0.404785,0.856445,-8.789062,0.122070,39.794922
479,0.126465,-0.371582,0.836914,-13.061523,-0.793457,35.766602
480,0.133789,-0.344727,0.830078,-14.587402,0.915527,36.315918
481,0.113770,-0.337891,0.839355,-12.268066,1.647949,39.672852
482,0.044922,-0.448730,0.904785,-8.911133,1.159668,46.203613
483,0.020996,-0.505371,0.905273,-13.366699,3.479004,45.776367
484,0.003418,-0.560059,0.907227,-21.240234,10.070801,43.334961
485,-0.016602,-0.623535,0.905273,-31.005859,20.935059,37.963867
486,-0.074219,-0.687988,1.037109,-40.832520,43.945312,15.380859
487,-0.112793,-0.642090,1.158203,-25.817871,40.222168,6.835938
488,-0.119629,-0.476074,1.267578,13.854980,-0.488281,8.117676
489,-0.102539,-0.429688,1.198242,26.306152,-21.362305,13.671875
490,-0.066895,-0.402832,1.082031,30.944824,-32.775879,19.226074
491,-0.032227,-0.423828,0.898926,8.911133,-15.075684,26.062012
492,-0.037109,-0.486328,0.856934,-12.145996,4.272461,26.977539
493,-0.081543,-0.571777,0.833984,-31.311035,25.146484,23.864746
494,-0.210449,-0.723145,0.875977,-33.874512,46.936035,7.812500
495,-0.246094,-0.757324,0.887695,-18.249512,47.973633,-4.577637
496,-0.265137,-0.725098,0.905273,3.967285,49.072266,-17.456055
497,-0.291016,-0.475098,1.116699,38.879395,51.879883,-33.081055
498,-0.278809,-0.344238,1.223633,38.208008,48.339844,-33.020020
499,-0.252930,-0.247559,1.297363,29.479980,41.442871,-26.733398
500,-0.233398,-0.201172,1.326172,15.747070,30.944824,-15.441895
501,-0.280762,-0.269531,1.224609,-12.329102,5.004883,3.967285
502,-0.280273,-0.309082,1.107910,-17.272949,-8.605957,7.751465
503,-0.295410,-0.417969,0.879395,-15.991211,-26.428223,10.192871
504,-0.297363,-0.444824,0.768555,-14.892578,-28.015137,8.056641
505,-0.304199,-0.472656,0.658203,-12.329102,-24.108887,3.906250
506,-0.307129,-0.485840,0.593262,-5.493164,-15.014648,-1.586914
507,-0.302246,-0.445312,0.658691,2.136230,3.784180,-10.620117
508,-0.289551,-0.418945,0.710938,-4.699707,11.352539,-14.404297
509,-0.267578,-0.414062,0.756348,-16.113281,14.953613,-17.578125
510,-0.223633,-0.411621,0.722168,-27.832031,6.713867,-24.108887
511,-0.208008,-0.419434,0.676270,-20.263672,-0.732422,-27.343750
512,-0.195801,-0.437500,0.658691,-7.446289,-9.643555,-30.517578
513,-0.129395,-0.417969,0.610840,11.901855,-22.583008,-33.630371
514,-0.088867,-0.397461,0.589355,12.756348,-23.010254,-33.752441
515,-0.056641,-0.384766,0.555664,10.070801,-20.141602,-33.508301
516,-0.023926,-0.381348,0.536133,8.911133,-14.099121,-32.653809
517,0.022949,-0.356445,0.599121,6.286621,-2.197266,-26.062012
518,0.021973,-0.351074,0.630371,1.586914,2.685547,-20.263672
519,-0.023926,-0.452637,0.719727,-11.901855,10.437012,-9.887695
520,-0.067871,-0.522461,0.751953,-15.808105,11.352539,-7.873535
521,-0.105957,-0.578125,0.785645,-14.648438,8.972168,-8.605957
522,-0.133301,-0.625000,0.821289,-1.403809,-4.516602,-15.441895
523,-0.109863,-0.622070,0.825195,8.361816,-12.573242,-18.188477
524,-0.074219,-0.603027,0.830078,18.005371,-18.920898,-19.165039
525,-0.049805,-0.573242,0.845215,24.414062,-22.705078,-17.456055
526,-0.049805,-0.569824,0.891113,18.249512,-22.949219,-12.390137
527,-0.055176,-0.575195,0.910156,11.596680,-20.690918,-11.047363
528,-0.059570,-0.586914,0.933594,3.479004,-17.944336,-10.437012
529,-0.049316,-0.607422,0.965332,-14.709473,-14.770508,-10.131836
530,-0.059082,-0.624023,0.946777,-18.310547,-14.953613,-10.681152
531,-0.069336,-0.636719,0.954590,-11.230469,-17.639160,-11.718750
532,-0.102051,-0.597656,1.000977,16.052246,-32.897949,-11.718750
533,-0.096680,-0.565430,1.018555,25.634766,-42.114258,-10.192871
534,-0.067871,-0.556152,1.015137,28.381348,-49.804688,-8.544922
535,-0.016602,-0.610840,0.906738,22.094727,-53.039551,-8.789062
536,-0.003906,-0.617676,0.833984,20.996094,-43.945312,-11.901855
537,0.028320,-0.617676,0.840332,21.789551,-30.273438,-14.831543
538,0.056641,-0.618652,0.881836,18.127441,-14.770508,-17.333984
539,0.034668,-0.540527,1.006348,6.408691,21.728516,-24.841309
540,0.007324,-0.412109,1.167480,7.812500,28.930664,-25.573730
541,0.002930,-0.297363,1.301270,11.291504,21.423340,-21.240234
542,0.035156,-0.224121,1.373047,12.878418,-7.385254,-0.183105
543,0.029297,-0.267578,1.325684,8.483887,-17.456055,8.117676
544,0.027832,-0.354492,1.132812,3.540039,-22.827148,12.023926
545,0.033203,-0.367188,1.020508,0.671387,-17.639160,9.460449
546,0.050781,-0.357910,0.917969,-4.760742,-4.028320,5.554199
547,0.066406,-0.352539,0.850586,-12.817383,16.479492,1.708984
548,0.037109,-0.331543,0.903320,-21.789551,60.058594,-6.652832
549,-0.003906,-0.303711,1.029785,-19.165039,67.138672,-8.972168
550,-0.074707,-0.322754,1.170410,-10.925293,46.203613,-12.084961
551,-0.100098,-0.337891,1.165039,-1.586914,27.465820,-13.549805
552,-0.113281,-0.354492,1.124023,8.239746,6.591797,-16.052246
553,-0.091309,-0.349121,1.023438,15.014648,-11.291504,-19.531250
554,0.001465,-0.275879,0.785645,17.395020,-18.249512,-21.789551
555,0.035645,-0.260254,0.736816,11.474609,-11.657715,-19.348145
556,0.044922,-0.258789,0.703613,2.624512,-3.173828,-15.441895
557,0.018066,-0.293457,0.702637,-13.793945,9.338379,-9.033203
558,0.003906,-0.325684,0.683105,-19.470215,10.803223,-7.812500
559,-0.021484,-0.353027,0.647949,-19.592285,12.084961,-8.300781
560,-0.056641,-0.378418,0.647949,-11.291504,16.296387,-10.498047
561,-0.063965,-0.382812,0.678223,-7.141113,17.333984,-10.070801
562,-0.076660,-0.390137,0.697266,-6.164551,17.272949,-9.704590
563,-0.074219,-0.413086,0.702637,-7.690430,17.272949,-10.986328
564,-0.068848,-0.458984,0.680664,-3.845215,23.132324,-15.380859
565,-0.089844,-0.488281,0.705566,1.403809,27.465820,-19.348145
566,-0.104980,-0.460938,0.802734,0.122070,39.062500,-31.372070
567,-0.095703,-0.416016,0.844238,-3.845215,44.189453,-33.325195
568,-0.097168,-0.409180,0.903320,-6.713867,47.546387,-32.958984
569,-0.108887,-0.464355,0.992188,-2.929688,36.987305,-32.958984
570,-0.109863,-0.464844,0.976562,4.455566,26.184082,-33.081055
571,-0.102051,-0.450684,0.924805,12.756348,17.944336,-33.020020
572,-0.095703,-0.437012,0.866699,21.301270,15.441895,-32.531738
573,-0.139648,-0.422852,0.896484,23.071289,31.250000,-31.616211
574,-0.143555,-0.427734,0.927734,10.009766,44.677734,-31.677246
575,-0.140137,-0.500000,0.980469,-24.047852,72.631836,-28.808594
576,-0.150391,-0.546875,1.006348,-34.729004,79.467773,-29.602051
577,-0.147949,-0.567871,1.024902,-35.949707,78.369141,-30.578613
578,-0.156250,-0.608887,0.973145,-13.671875,63.232422,-32.104492
579,-0.194824,-0.619629,0.924805,4.577637,59.020996,-36.315918
580,-0.251465,-0.606445,0.924805,25.268555,59.082031,-42.602539
581,-0.326660,-0.531738,1.092285,46.508789,65.856934,-57.800293
582,-0.341797,-0.471680,1.169922,42.175293,71.960449,-62.927246
583,-0.334473,-0.344238,1.319824,30.944824,71.411133,-65.307617
584,-0.303711,-0.268066,1.349121,25.268555,58.471680,-62.316895
585,-0.267578,-0.191895,1.314941,21.240234,41.320801,-54.687500
586,-0.256348,-0.177734,1.121582,21.789551,3.479004,-35.522461
587,-0.251953,-0.215820,1.008789,26.000977,-11.474609,-30.639648
588,-0.239258,-0.251953,0.911621,28.808594,-21.362305,-27.343750
589,-0.256348,-0.339355,0.750000,25.146484,-20.874023,-23.010254
590,-0.259766,-0.387695,0.672363,21.484375,-12.756348,-24.414062
591,-0.249023,-0.414551,0.611816,16.540527,2.197266,-27.404785
592,-0.256348,-0.444824,0.713379,3.967285,38.940430,-34.118652
593,-0.280273,-0.441895,0.811035,-4.028320,46.997070,-38.146973
594,-0.303223,-0.444336,0.874023,-9.704590,45.593262,-42.358398
595,-0.313965,-0.418945,0.886230,-2.807617,26.733398,-52.124023
596,-0.293945,-0.381348,0.887695,7.995605,12.207031,-53.649902
597,-0.263672,-0.363281,0.882812,17.944336,-4.638672,-52.856445
598,-0.198242,-0.377441,0.776855,27.832031,-34.179688,-51.391602
599,-0.157715,-0.380371,0.695801,30.700684,-40.954590,-51.452637
600,-0.127930,-0.371582,0.614258,31.433105,-33.508301,-52.307129
601,-0.077637,-0.307617,0.532227,27.770996,-20.019531,-51.208496
602,-0.073730,-0.277344,0.569824,21.240234,-3.356934,-46.691895
603,-0.104004,-0.299316,0.684570,7.690430,11.230469,-40.588379
604,-0.203613,-0.418945,0.830078,-31.921387,24.719238,-37.353516
605,-0.207031,-0.472168,0.842773,-40.832520,22.766113,-38.818359
606,-0.181152,-0.537109,0.837891,-25.695801,9.887695,-38.940430
607,-0.177246,-0.565430,0.854980,-11.108398,-0.915527,-39.733887
608,-0.166504,-0.557129,0.862793,3.173828,-12.023926,-42.175293
609,-0.144531,-0.512695,0.869141,15.014648,-22.277832,-43.884277
610,-0.085449,-0.438477,0.861816,28.137207,-35.217285,-40.954590
611,-0.073242,-0.413086,0.869629,24.291992,-32.653809,-36.315918
612,-0.067383,-0.414062,0.887207,14.587402,-27.404785,-29.296875
613,-0.074707,-0.495605,0.874512,-3.723145,-15.686035,-20.324707
614,-0.073242,-0.533203,0.890625,-2.563477,-12.634277,-18.127441
615,-0.073730,-0.565918,0.923828,4.150391,-13.854980,-17.089844
616,-0.032715,-0.533203,0.993164,17.761230,-17.883301,-17.150879
617,-0.002930,-0.480957,1.018066,17.822266,-19.104004,-14.892578
618,0.022949,-0.437012,1.037598,12.817383,-18.798828,-10.070801
619,0.027832,-0.411621,1.041016,3.356934,-17.639160,5.187988
620,0.013672,-0.444824,1.054199,5.981445,-18.981934,11.718750
621,0.004883,-0.481934,1.077148,12.023926,-23.620605,16.418457
622,-0.014160,-0.581055,1.057617,12.878418,-29.479980,20.324707
623,-0.024414,-0.634766,1.012695,6.958008,-25.634766,16.662598
624,-0.016113,-0.652344,0.955078,3.112793,-17.639160,10.681152
625,0.033203,-0.620117,0.899414,12.145996,13.854980,-3.723145
626,0.048828,-0.583496,0.966797,21.118164,33.020020,-14.160156
627,0.072754,-0.467773,1.098145,26.672363,49.377441,-23.864746
628,0.095215,-0.346191,1.238770,26.000977,58.288574,-28.625488
629,0.151367,-0.113770,1.423340,25.512695,50.415039,-20.874023
630,0.166504,-0.031250,1.491211,19.958496,35.583496,-9.094238
631,0.152832,-0.029297,1.374023,-8.056641,-2.868652,17.395020
632,0.153809,-0.119141,1.219238,-13.977051,-18.737793,24.353027
633,0.165039,-0.192871,1.078125,-4.699707,-31.433105,26.672363
634,0.175293,-0.278809,0.915527,22.644043,-46.936035,24.291992
635,0.194824,-0.253418,0.839844,27.648926,-43.029785,20.996094
636,0.205078,-0.219727,0.806641,25.878906,-33.691406,19.653320
637,0.208008,-0.194824,0.784668,18.005371,-21.362305,19.775391
638,0.213867,-0.169434,0.828613,-8.239746,8.850098,23.925781
639,0.180664,-0.176270,0.886230,-20.446777,17.944336,27.832031
640,0.093750,-0.254883,0.964355,-24.780273,12.390137,32.653809
641,0.064941,-0.292969,0.979980,-21.179199,1.037598,31.616211
642,0.049316,-0.333008,0.973633,-17.028809,-12.817383,28.564453
643,0.037109,-0.363770,0.931152,-11.413574,-26.977539,24.169922
644,0.059570,-0.394043,0.823242,7.263184,-48.156738,14.648438
645,0.081055,-0.340820,0.747070,13.488770,-50.354004,10.925293
646,0.112793,-0.288086,0.704102,16.052246,-47.058105,11.169434
647,0.163574,-0.251465,0.633301,1.831055,-26.245117,18.127441
648,0.177734,-0.266113,0.623535,-14.099121,-8.789062,20.080566
649,0.177734,-0.289062,0.651855,-25.756836,6.469727,20.385742
650,0.143066,-0.321777,0.792969,-26.306152,17.456055,21.240234
651,0.117188,-0.344727,0.864746,-20.446777,13.427734,23.315430
652,0.099121,-0.366211,0.900391,-13.305664,5.981445,24.902344
653,0.103027,-0.353027,0.912598,-6.164551,2.380371,25.390625
654,0.109863,-0.344727,0.929199,-8.117676,4.943848,27.038574
655,0.100586,-0.350098,0.942871,-9.094238,7.324219,29.418945
656,0.068848,-0.398438,1.000977,-13.000488,11.901855,29.541016
657,0.062988,-0.402832,1.018555,-15.136719,13.854980,29.174805
658,0.052246,-0.408203,1.044434,-17.944336,15.808105,30.151367
659,0.042969,-0.425293,1.059570,-22.094727,16.479492,31.677246
660,0.036133,-0.492188,1.045410,-24.719238,12.939453,34.362793
661,0.028809,-0.512695,1.043457,-19.592285,8.789062,33.508301
662,0.025879,-0.517578,1.023438,-11.474609,2.624512,32.592773
663,0.027832,-0.491211,0.978027,9.887695,-3.540039,31.677246
664,0.027344,-0.440918,0.973633,10.559082,0.305176,31.921387
665,0.015137,-0.368652,0.968750,-5.126953,20.568848,39.428711
666,-0.011719,-0.393555,1.015625,-11.413574,29.357910,45.654297
667,-0.068359,-0.454102,1.056641,-18.005371,34.423828,49.499512
668,-0.137207,-0.525391,1.088379,-23.315430,37.170410,46.691895
669,-0.126465,-0.524902,1.144531,-21.057129,27.526855,28.442383
670,-0.064453,-0.463867,1.137695,-11.840820,13.732910,25.451660
671,-0.040039,-0.429199,1.079102,-3.479004,1.708984,27.465820
672,-0.069336,-0.403809,0.978516,-4.272461,3.967285,21.484375
673,-0.076660,-0.338379,0.966309,-14.465332,16.418457,14.099121
674,-0.062500,-0.276855,0.988770,-25.695801,29.113770,10.864258
675,-0.072754,-0.262207,1.060547,-38.879395,42.663574,11.291504
676,-0.083008,-0.251465,1.088379,-41.992188,43.212891,10.498047
677,-0.084961,-0.231445,1.135742,-39.550781,35.766602,12.084961
678,-0.094727,-0.219238,1.139160,-31.005859,18.737793,16.662598
679,-0.118164,-0.275879,1.047363,9.460449,-28.930664,28.686523
680,-0.135742,-0.339844,0.962891,30.639648,-50.048828,31.372070
681,-0.099121,-0.370117,0.867188,45.288086,-68.969727,30.334473
682,-0.069824,-0.352539,0.788574,36.132812,-66.162109,29.663086
683,-0.036621,-0.337402,0.743652,19.958496,-57.495117,31.738281
684,-0.007324,-0.433594,0.642090,-16.784668,-36.865234,36.071777
685,-0.011719,-0.503418,0.607910,-21.179199,-30.273438,33.996582
686,-0.010742,-0.540527,0.627441,-18.493652,-28.015137,28.930664
687,0.001465,-0.531250,0.621094,-6.713867,-32.531738,18.310547
688,0.027344,-0.502441,0.610352,-0.854492,-32.043457,14.587402
689,0.058594,-0.470703,0.635254,0.549316,-26.916504,12.451172
690,0.091309,-0.427246,0.686523,-14.709473,-11.230469,11.230469
691,0.102539,-0.409180,0.706055,-22.155762,-4.028320,12.451172
692,0.099609,-0.399902,0.733398,-24.963379,-0.793457,14.892578
693,0.084961,-0.395996,0.787598,-19.958496,-4.394531,20.751953
694,0.083496,-0.393066,0.834473,-14.221191,-9.033203,23.315430
695,0.072266,-0.369141,0.882324,-5.981445,-16.418457,26.977539
696,0.050293,-0.393555,0.970215,11.596680,-39.611816,39.978027
697,0.042480,-0.410645,0.970215,13.916016,-47.790527,44.189453
698,0.041016,-0.432129,0.958496,10.192871,-52.795410,47.546387
699,0.059570,-0.470703,0.854980,-11.169434,-46.875000,48.522949
700,0.084473,-0.473633,0.809082,-19.042969,-36.437988,46.569824
701,0.107422,-0.456543,0.832031,-22.094727,-24.841309,46.264648
702,0.107422,-0.440430,0.902344,-20.080566,-17.395020,48.767090
703,0.083984,-0.400391,1.041016,-10.742188,-20.385742,60.119629
704,0.090332,-0.387695,1.086426,-7.080078,-25.451660,68.298340
705,0.079590,-0.435059,1.129395,-5.004883,-32.531738,77.148438
706,0.002441,-0.654297,1.165527,-13.610840,-46.386719,78.369141
707,-0.031738,-0.729004,1.125000,-14.526367,-54.016113,70.129395
708,-0.025391,-0.765137,1.049316,-5.615234,-60.546875,59.692383
709,0.125000,-0.696289,0.887207,22.583008,-50.720215,40.527344
710,0.179199,-0.592773,0.911133,24.536133,-29.235840,32.592773
711,0.200684,-0.458008,0.968262,20.629883,-8.544922,28.381348
712,0.235840,-0.191406,1.160645,8.544922,12.023926,35.888672
713,0.239746,-0.122559,1.261719,-2.868652,9.094238,47.729492
714,0.216797,-0.111328,1.307129,-15.930176,-1.403809,60.791016
715,0.145020,-0.242188,1.199707,-26.489258,-32.470703,78.796387
716,0.121582,-0.348145,1.128906,-22.888184,-45.593262,78.735352
717,0.123535,-0.401367,1.039551,-18.188477,-55.969238,74.951172
718,0.149902,-0.422852,0.841797,-8.361816,-61.279297,65.551758
719,0.149414,-0.404297,0.754395,0.061035,-57.250977,61.035156
720,0.135254,-0.357422,0.702148,11.901855,-51.269531,57.067871
721,0.131348,-0.245117,0.708008,36.926270,-37.780762,54.199219
722,0.151855,-0.216309,0.771484,36.865234,-26.611328,54.992676
723,0.153320,-0.206543,0.844727,23.193359,-14.221191,55.419922
724,0.133301,-0.194824,0.910645,-10.192871,-2.868652,55.725098
725,0.138184,-0.225098,0.916016,-17.395020,-6.774902,55.725098
726,0.138184,-0.245117,0.904785,-15.930176,-15.563965,56.274414
727,0.135254,-0.258789,0.895508,-7.385254,-27.343750,58.166504
728,0.129395,-0.249512,0.810547,11.779785,-51.696777,61.218262
729,0.158691,-0.217285,0.690430,14.770508,-53.833008,65.612793
730,0.167969,-0.211914,0.668457,8.789062,-45.288086,68.908691
731,0.148926,-0.240723,0.670410,0.000000,-34.729004,72.143555
732,0.122559,-0.271973,0.691406,-5.981445,-25.451660,74.218750
733,0.043457,-0.385254,0.823730,-7.263184,-19.042969,76.721191
734,-0.003906,-0.446289,0.865723,-6.225586,-21.850586,75.134277
735,-0.045410,-0.524902,0.869629,-1.953125,-26.062012,70.739746
736,-0.058594,-0.599609,0.844727,16.784668,-28.991699,52.917480
737,-0.024902,-0.582520,0.852051,21.606445,-22.521973,43.823242
738,0.021484,-0.465820,0.928223,18.493652,-0.427246,32.165527
739,0.036133,-0.416016,0.987305,15.319824,9.216309,30.700684
740,0.051758,-0.377930,1.061035,9.460449,17.028809,31.677246
741,0.051270,-0.352051,1.148438,0.549316,20.568848,35.400391
742,-0.005371,-0.385742,1.235840,-15.808105,7.568359,45.715332
743,-0.041504,-0.449707,1.202637,-14.282227,-7.507324,48.461914
744,-0.077637,-0.520020,1.140137,-7.446289,-23.681641,47.668457
745,-0.099121,-0.567383,0.983398,17.456055,-45.043945,38.696289
746,-0.085449,-0.563965,0.909668,31.005859,-48.889160,33.691406
747,-0.066895,-0.545410,0.853516,42.114258,-45.410156,29.846191
748,-0.041504,-0.486816,0.813965,51.818848,-22.094727,25.695801
749,-0.060059,-0.427734,0.823242,49.072266,-2.441406,24.597168
750,-0.104004,-0.359375,0.873047,41.625977,20.324707,24.841309
751,-0.159668,-0.308105,0.963379,31.494141,41.809082,27.038574
752,-0.279785,-0.355957,1.204102,1.464844,71.838379,30.822754
753,-0.329590,-0.413086,1.312500,-11.962891,74.584961,29.907227
754,-0.365723,-0.439453,1.405273,-19.653320,49.133301,21.545410
755,-0.348633,-0.402832,1.361328,-18.554688,27.709961,17.761230
756,-0.327148,-0.362305,1.260254,-14.465332,6.713867,14.953613
757,-0.292480,-0.320312,1.149902,-9.033203,-9.643555,12.268066
758,-0.227539,-0.207031,0.924805,-5.554199,-26.306152,11.840820
759,-0.209961,-0.183594,0.818359,-4.760742,-27.221680,14.709473
760,-0.218262,-0.200684,0.643555,-3.906250,-16.174316,17.700195
761,-0.212891,-0.236328,0.619629,-4.394531,-5.432129,15.991211
762,-0.204590,-0.288574,0.654297,-6.835938,5.310059,11.962891
763,-0.200195,-0.319336,0.702637,-8.178711,10.742188,2.624512
764,-0.186035,-0.343262,0.756836,-1.220703,2.624512,-1.037598
765,-0.169922,-0.335449,0.751465,10.253906,-9.277344,-3.417969
766,-0.144043,-0.319824,0.733887,20.812988,-21.484375,-5.004883
767,-0.087402,-0.303223,0.679688,28.747559,-38.085938,-6.958008
768,-0.063477,-0.305176,0.645996,28.808594,-41.137695,-6.164551
769,-0.057129,-0.322266,0.620117,28.991699,-40.588379,-4.455566
770,-0.049805,-0.360840,0.586426,24.536133,-32.409668,-3.417969
771,-0.027832,-0.383789,0.587402,18.188477,-23.620605,-3.662109
772,-0.003418,-0.401855,0.583496,12.573242,-12.634277,-3.479004
773,0.025879,-0.418457,0.672852,4.089355,5.981445,-2.990723
774,0.028809,-0.411621,0.724609,1.342773,10.742188,-1.281738
775,0.029785,-0.401367,0.770020,0.854492,11.779785,2.380371
776,0.027832,-0.388672,0.793945,3.173828,10.742188,8.483887
777,-0.035156,-0.440918,0.863770,5.432129,11.108398,21.362305
778,-0.065918,-0.486328,0.904785,1.098633,12.145996,24.353027
779,-0.071289,-0.541504,0.926758,-8.422852,14.099121,24.841309
780,-0.071777,-0.549805,0.936523,-7.629395,15.991211,25.329590
781,-0.091797,-0.539062,0.962402,-3.479004,17.822266,25.756836
782,-0.110352,-0.445312,1.082031,-0.549316,19.775391,27.526855
783,-0.091797,-0.372070,1.117676,-5.859375,20.446777,32.836914
784,-0.078613,-0.334473,1.145996,-11.108398,20.080566,41.931152
785,-0.085938,-0.345215,1.135254,-15.563965,17.333984,50.537109
786,-0.071289,-0.367188,1.089355,-16.052246,10.437012,59.020996
787,-0.058105,-0.376953,1.093262,-12.878418,5.432129,62.500000
788,-0.056152,-0.399902,1.094238,-7.446289,-1.037598,66.345215
789,-0.071777,-0.459961,1.022461,5.737305,-12.145996,70.068359
790,-0.092285,-0.455566,0.932129,14.892578,-10.070801,69.824219
791,-0.101074,-0.417969,0.854004,30.395508,-1.342773,68.664551
792,-0.048828,-0.308594,0.830078,53.039551,28.259277,66.345215
793,-0.041992,-0.245117,0.804199,45.104980,50.354004,64.758301
794,-0.041992,-0.173828,0.747070,29.785156,76.416016,62.866211
795,-0.048828,-0.051758,0.779785,-11.596680,124.694824,64.758301
796,-0.099121,-0.045410,0.780762,-42.480469,139.831543,65.124512
797,-0.164062,-0.025391,0.738281,-64.086914,153.930664,62.805176
798,-0.187500,0.052246,0.787598,-47.851562,151.855469,64.575195
799,-0.183594,0.090332,0.794922,-24.353027,136.901855,72.753906
800,-0.192383,0.088867,0.778809,-4.699707,121.032715,80.993652
801,-0.207520,0.090820,0.676270,4.272461,104.248047,89.233398
802,-0.229004,0.083984,0.639648,-4.211426,101.013184,93.017578
803,-0.266113,0.072266,0.583496,-18.432617,98.449707,96.557617
804,-0.315430,0.077637,0.394531,-47.973633,93.994141,107.238770
805,-0.400391,0.123047,0.143066,-56.884766,100.341797,112.792969
806,-0.488281,0.170898,-0.007812,-47.241211,123.291016,119.567871
807,-0.551270,0.153320,0.132812,-24.780273,140.686035,129.760742
808,-0.675293,-0.061035,0.375000,0.061035,135.559082,141.296387
809,-0.668945,-0.132812,0.343262,-1.586914,132.385254,136.779785
810,-0.621582,-0.139648,0.265625,-8.422852,135.803223,130.554199
811,-0.588379,-0.072266,0.178223,-32.714844,155.700684,119.934082
812,-0.702637,-0.038574,0.208984,-44.921875,167.419434,112.915039
813,-0.839355,-0.025391,0.337891,-41.381836,173.339844,102.050781
814,-0.961914,-0.024902,0.588867,-14.282227,155.273438,92.224121
815,-1.057129,0.065918,0.765137,84.777832,52.185059,77.575684
816,-0.981445,0.185059,0.641113,148.498535,-2.563477,80.078125
817,-0.884766,0.245117,0.446777,191.589355,-33.203125,83.923340
818,-0.845215,0.378418,0.214844,165.344238,-2.258301,80.322266
819,-0.947754,0.444824,0.057129,113.220215,35.034180,74.096680
820,-1.045898,0.553223,-0.092773,69.763184,77.575684,67.749023
821,-1.131348,0.709473,-0.173828,50.903320,113.342285,65.185547
822,-1.304199,0.997070,0.000488,69.946289,165.039062,70.983887
823,-1.357422,1.089844,0.216797,86.791992,171.875000,76.416016
824,-1.414551,1.164551,0.425781,98.999023,171.630859,84.533691
825,-1.501465,1.163574,0.737305,104.187012,148.193359,101.257324
826,-1.532227,1.153320,0.730957,106.811523,129.089355,100.463867
827,-1.527344,1.209961,0.722168,123.413086,114.318848,97.595215
828,-1.562012,1.305664,0.781738,183.410645,79.284668,96.923828
829,-1.578613,1.345703,0.807617,215.026855,64.941406,93.505859
830,-1.562988,1.387695,0.861816,242.065430,54.748535,90.332031
831,-1.520020,1.410156,0.946289,262.268066,45.776367,91.247559
832,-1.298340,1.444336,1.083008,295.471191,21.972656,114.868164
833,-1.261719,1.343262,1.145996,298.950195,12.023926,134.155273
834,-1.329102,0.992676,1.310059,236.083984,10.375977,149.414062
835,-1.292969,0.832520,1.269531,184.204102,10.375977,150.390625
836,-1.271484,0.663086,1.185059,139.465332,11.535645,150.024414
837,-1.282715,0.507324,1.116211,105.041504,13.122559,144.165039
838,-1.261719,0.361328,1.036133,50.598145,14.282227,122.436523
839,-1.183105,0.306641,0.967773,23.071289,9.277344,109.863281
840,-1.067871,0.246582,0.852539,-0.488281,4.943848,97.045898
841,-0.840820,0.180176,0.675781,-16.174316,-6.530762,76.538086
842,-0.755859,0.169434,0.564453,-13.854980,-13.183594,67.260742
843,-0.600098,0.210449,0.479980,2.624512,-20.385742,51.025391
844,-0.518555,0.226074,0.470703,8.178711,-22.644043,46.264648
845,-0.454102,0.245605,0.500488,10.070801,-23.803711,44.738770
846,-0.435059,0.277344,0.573730,7.385254,-28.808594,47.058105
847,-0.473145,0.332031,0.556641,1.770020,-59.265137,58.166504
848,-0.508789,0.252441,0.473145,-0.427246,-75.927734,61.645508
849,-0.540039,0.183105,0.324219,-2.380371,-83.923340,58.227539
850,-0.564453,0.187012,0.192871,5.615234,-85.083008,44.372559
851,-0.579590,0.231934,0.135254,13.427734,-86.181641,40.954590
852,-0.586426,0.275879,0.051270,25.268555,-85.266113,39.672852
853,-0.605957,0.321777,0.012207,40.100098,-80.444336,40.832520
854,-0.674316,0.450195,-0.032227,56.091309,-61.096191,49.621582
855,-0.695801,0.509277,-0.023438,58.227539,-45.959473,57.678223
856,-0.718750,0.527344,0.004395,52.734375,-29.296875,67.138672
857,-0.826660,0.422363,0.106934,23.376465,10.498047,84.167480
858,-0.925781,0.352051,0.165527,5.249023,29.602051,83.923340
859,-1.003906,0.333008,0.215332,-9.094238,45.227051,78.979492
860,-1.107910,0.430664,0.340332,-19.104004,62.072754,70.312500
861,-1.141602,0.474121,0.424805,-19.775391,62.988281,70.617676
862,-1.177734,0.476074,0.477051,-21.118164,61.767578,71.411133
863,-1.222168,0.431641,0.526367,-24.475098,60.791016,70.556641
864,-1.329590,0.314453,0.576660,-40.405273,59.570312,55.969238
865,-1.403809,0.296875,0.598145,-50.598145,62.805176,42.236328
866,-1.511719,0.352051,0.748047,-68.420410,56.640625,7.690430
867,-1.510742,0.398438,0.754883,-72.082520,44.555664,-7.324219
868,-1.511719,0.443848,0.733398,-72.021484,32.714844,-19.714355
869,-1.506836,0.497559,0.680664,-81.420898,15.197754,-41.320801
870,-1.466797,0.514648,0.614746,-91.186523,11.779785,-49.987793
871,-1.415039,0.509277,0.538086,-103.210449,12.268066,-58.532715
872,-1.363281,0.484375,0.456543,-115.966797,17.822266,-67.382812
873,-1.347656,0.441895,0.385254,-127.197266,28.198242,-77.941895
874,-1.386719,0.452148,0.320801,-143.005371,53.344727,-108.947754
875,-1.409668,0.504883,0.280762,-141.479492,65.368652,-126.037598
876,-1.447754,0.578613,0.279785,-135.742188,79.162598,-143.615723
877,-1.521973,0.755371,0.352539,-118.896484,110.839844,-178.344727
878,-1.492676,0.867188,0.527344,-113.769531,121.520996,-190.979004
879,-1.416504,0.947754,0.674316,-112.854004,120.788574,-197.570801
880,-1.196289,0.949219,0.805664,-105.651855,101.928711,-194.152832
881,-1.131836,0.857422,0.855469,-96.496582,84.106445,-190.307617
882,-1.083008,0.710449,0.848633,-66.528320,40.222168,-192.932129
883,-1.101562,0.695312,0.842285,-48.461914,18.859863,-198.791504
884,-1.113281,0.724609,0.877441,-34.851074,-5.126953,-204.895020
885,-1.066895,0.805664,0.708984,-15.869141,-54.016113,-209.167480
886,-1.024902,0.819824,0.614258,-7.690430,-69.702148,-207.092285
887,-1.006348,0.811523,0.531738,-5.859375,-78.308105,-205.871582
888,-0.964355,0.806641,0.418457,-16.235352,-80.749512,-204.406738
889,-0.967773,0.809082,0.353516,-21.667480,-76.354980,-203.674316
890,-0.989746,0.820801,0.300293,-24.902344,-68.115234,-203.613281
891,-0.991211,0.902832,0.316895,-32.043457,-49.621582,-205.688477
892,-0.916016,0.971191,0.319336,-36.865234,-43.151855,-202.697754
893,-0.827637,1.018066,0.283691,-41.748047,-34.423828,-194.335938
894,-0.768555,1.042969,0.273438,-49.133301,-22.827148,-183.227539
895,-0.684082,1.064453,0.251465,-73.852539,10.375977,-161.193848
896,-0.670898,1.081543,0.258789,-87.341309,27.343750,-148.559570
897,-0.666992,1.092773,0.285645,-97.961426,41.748047,-135.864258
898,-0.596191,1.112305,0.311523,-118.652344,61.035156,-106.140137
899,-0.561523,1.055664,0.306152,-128.173828,67.138672,-87.707520
900,-0.544434,0.938965,0.299805,-136.108398,71.899414,-71.105957
901,-0.550293,0.730469,0.276855,-130.554199,69.885254,-52.856445
902,-0.551270,0.692871,0.274414,-113.037109,60.852051,-48.645020
903,-0.542480,0.686035,0.258301,-87.402344,45.959473,-44.555664
904,-0.529297,0.691895,0.239746,-57.189941,28.015137,-39.611816
905,-0.508789,0.772949,0.176270,-4.516602,-5.554199,-26.550293
906,-0.513672,0.823242,0.111816,15.747070,-16.235352,-17.333984
907,-0.553711,0.844727,0.061523,27.343750,-21.667480,-7.751465
908,-0.598633,0.844238,-0.008789,38.085938,-12.390137,9.033203
909,-0.582031,0.865723,-0.003906,48.278809,-6.164551,17.944336
910,-0.558594,0.895508,0.018066,61.645508,-0.244141,31.127930
911,-0.615234,0.945312,0.156738,82.763672,14.282227,66.772461
912,-0.663574,0.953613,0.253906,87.097168,18.005371,87.036133
913,-0.716309,0.960449,0.327637,87.463379,19.348145,108.337402
914,-0.914062,0.828125,0.485840,70.922852,20.324707,146.789551
915,-1.013184,0.742188,0.482422,49.804688,21.545410,156.250000
916,-1.053711,0.709473,0.459473,37.109375,23.681641,161.499023
917,-1.078613,0.718750,0.459473,36.193848,22.033691,167.236328
918,-1.094727,0.734863,0.455566,60.119629,5.493164,183.471680
919,-1.085938,0.695801,0.462402,81.665039,-5.065918,193.603516
920,-1.089355,0.635742,0.503906,101.318359,-16.540527,202.758789
921,-1.062012,0.513184,0.543945,119.689941,-35.522461,215.026855
922,-1.056152,0.441406,0.558594,117.187500,-39.550781,216.796875
923,-1.067871,0.352051,0.591309,105.712891,-41.748047,216.125488
924,-1.085938,0.218262,0.474609,74.340820,-37.231445,200.744629
925,-1.129883,0.140625,0.425781,67.565918,-33.569336,187.255859
926,-1.056641,0.309570,0.393555,65.856934,-34.057617,179.260254
927,-1.047363,0.369629,0.341797,68.969727,-31.250000,176.635742
928,-1.008301,0.535156,0.335938,84.899902,-26.489258,180.603027
929,-1.041016,0.589844,0.372559,93.566895,-25.573730,189.697266
930,-1.283691,0.654297,0.559082,83.618164,-22.521973,208.618164
931,-1.435059,0.624023,0.630859,60.485840,-27.282715,214.782715
932,-1.529297,0.501953,0.602539,33.813477,-36.499023,213.989258
933,-1.535645,0.335449,0.471191,18.676758,-43.701172,205.444336
934,-1.469727,0.131348,0.301758,63.537598,-58.593750,178.588867
935,-1.440430,0.104004,0.328613,102.050781,-63.659668,165.832520
936,-1.446289,0.105469,0.429199,132.385254,-67.382812,153.747559
937,-1.380859,0.243652,0.511230,175.720215,-77.331543,130.004883
938,-1.340332,0.366211,0.528320,186.706543,-73.303223,127.014160
939,-1.328613,0.409668,0.589844,180.297852,-60.852051,128.479004
940,-1.351074,0.366699,0.755371,102.844238,-26.916504,124.633789
941,-1.355957,0.322266,0.763672,53.894043,-10.681152,118.286133
942,-1.362793,0.276855,0.722656,11.230469,4.211426,112.487793
943,-1.427246,0.213379,0.702637,-18.432617,18.188477,102.722168
944,-1.489746,0.132324,0.720215,-57.495117,29.296875,68.420410
945,-1.470215,0.156738,0.679688,-63.537598,28.076172,49.682617
946,-1.448730,0.280273,0.633789,-44.555664,12.939453,21.362305
947,-1.441895,0.341309,0.622559,-32.775879,1.586914,11.291504
948,-1.408203,0.379883,0.638184,-30.212402,-7.873535,4.943848
949,-1.363281,0.375977,0.607910,-43.212891,-14.282227,0.366211
950,-1.251953,0.271973,0.413574,-82.885742,-9.155273,-6.713867
951,-1.254395,0.190430,0.312012,-98.693848,0.122070,-14.343262
952,-1.274902,0.131348,0.251465,-107.482910,11.474609,-28.198242
953,-1.312988,0.117676,0.235840,-107.360840,29.479980,-65.002441
954,-1.338379,0.135254,0.241699,-100.158691,36.315918,-85.205078
955,-1.422363,0.254883,0.278809,-84.350586,52.795410,-130.310059
956,-1.448730,0.377930,0.324219,-78.002930,64.331055,-153.198242
957,-1.391113,0.619141,0.459473,-71.472168,79.956055,-186.035156
958,-1.316895,0.688477,0.512207,-68.298340,84.533691,-193.359375
959,-1.243652,0.705078,0.556152,-63.415527,86.303711,-196.838379
960,-1.131836,0.662598,0.635254,-61.340332,83.129883,-205.871582
961,-1.084961,0.733398,0.618164,-64.147949,89.111328,-211.364746
962,-1.066406,0.786621,0.729980,-68.420410,93.200684,-208.557129
963,-1.086914,0.809570,0.812500,-77.453613,82.885742,-202.331543
964,-1.080078,0.775391,0.840332,-79.345703,71.105957,-201.416016
965,-1.062988,0.767578,0.825195,-80.810547,58.837891,-202.941895
966,-1.043457,0.771973,0.805664,-79.833984,45.654297,-203.613281
967,-1.125000,0.833008,0.780273,-68.725586,18.188477,-207.031250
968,-1.141602,0.899902,0.722656,-69.213867,3.112793,-209.167480
969,-1.106934,0.933594,0.627441,-66.162109,-9.460449,-208.129883
970,-1.069824,0.924805,0.536621,-45.715332,-32.470703,-206.298828
971,-1.006348,0.901855,0.373047,-34.057617,-44.250488,-208.740234
972,-0.958008,0.926758,0.237793,-22.399902,-51.574707,-212.707520
973,-0.915039,0.978027,0.110352,-9.521484,-51.086426,-215.515137
974,-0.868652,1.176270,0.053711,12.084961,-30.700684,-209.350586
975,-0.854492,1.238770,0.095703,8.972168,-15.991211,-197.570801
976,-0.834473,1.256348,0.158691,-6.835938,1.586914,-182.861328
977,-0.726074,1.170410,0.259277,-79.345703,31.677246,-158.142090
978,-0.657715,1.130859,0.183594,-106.567383,44.372559,-148.132324
979,-0.609863,1.116699,0.128906,-111.755371,52.734375,-138.549805
980,-0.537598,1.214355,0.060059,-80.810547,54.565430,-109.619141
981,-0.503906,1.248047,0.046875,-54.809570,52.001953,-88.867188
982,-0.494141,1.240234,0.083496,-29.907227,47.424316,-65.612793
983,-0.564453,1.181641,0.068848,1.037598,39.978027,-28.991699
984,-0.646973,1.178711,0.066895,12.756348,41.259766,-13.000488
985,-0.740723,1.153809,0.106445,26.550293,41.503906,0.854492
986,-0.781250,1.160156,0.143066,64.147949,34.057617,24.536133
987,-0.770508,1.183105,0.187500,88.256836,29.968262,41.809082
988,-0.729004,1.176758,0.243652,111.877441,23.559570,63.964844
989,-0.703613,1.026855,0.396973,134.033203,20.629883,114.257812
990,-0.765137,0.905762,0.493164,125.061035,23.559570,135.986328
991,-0.833496,0.820801,0.558105,108.947754,27.770996,152.282715
992,-0.890625,0.736816,0.644531,91.918945,28.991699,165.405273
993,-1.017090,0.525391,0.700684,58.349609,16.601562,179.992676
994,-1.059570,0.427246,0.663086,49.011230,8.056641,177.551270
995,-1.077637,0.387695,0.635742,47.851562,-2.990723,171.325684
996,-1.077637,0.368652,0.591797,51.269531,-18.676758,164.733887
997,-0.991211,0.356445,0.465332,67.810059,-45.715332,152.282715
998,-0.937500,0.357910,0.412598,78.491211,-55.236816,150.512695
999,-0.906738,0.326660,0.378906,89.233398,-62.988281,150.695801
1000,-0.882812,0.279785,0.348633,99.182129,-70.983887,150.146484
1001,-0.834473,0.184570,0.249512,102.111816,-71.777344,140.136719
1002,-0.825195,0.132812,0.234863,99.548340,-65.185547,132.263184
1003,-0.826172,0.086914,0.224609,97.412109,-50.292969,109.802246
1004,-0.806152,0.125000,0.172852,105.163574,-43.029785,97.961426
1005,-0.804688,0.223633,0.200195,115.661621,-36.804199,90.393066
1006,-0.812012,0.326660,0.263184,124.694824,-33.264160,87.585449
1007,-0.832520,0.481934,0.365234,135.498047,-33.325195,92.590332
1008,-0.861328,0.516602,0.412598,139.770508,-32.287598,98.754883
1009,-0.980469,0.541992,0.524902,136.779785,-27.648926,107.910156
1010,-1.036133,0.577637,0.590820,128.540039,-26.306152,112.121582
1011,-1.099121,0.582520,0.664062,113.098145,-27.038574,119.506836
1012,-1.131348,0.567383,0.649902,92.224121,-30.395508,127.990723
1013,-1.120117,0.478027,0.479492,68.359375,-31.311035,146.728516
1014,-1.169434,0.395020,0.450195,64.697266,-27.832031,154.907227
1015,-1.238281,0.322266,0.456543,64.636230,-23.986816,158.447266
1016,-1.330078,0.171387,0.535156,62.011719,-19.287109,154.785156
1017,-1.351074,0.102051,0.549316,56.457520,-17.639160,148.986816
1018,-1.371094,0.028809,0.573730,48.583984,-13.916016,140.686035
1019,-1.415527,-0.019531,0.624512,17.272949,-3.662109,116.882324
1020,-1.422852,-0.029297,0.649414,1.831055,0.671387,104.492188
1021,-1.428711,-0.032715,0.658203,-10.864258,0.671387,90.881348
1022,-1.493164,0.030273,0.617188,-12.145996,-4.516602,56.884766
1023,-1.527344,0.110352,0.652344,-0.122070,-12.084961,38.879395
1024,-1.508789,0.192383,0.689453,8.850098,-23.925781,22.644043
1025,-1.437500,0.287598,0.627930,4.638672,-37.414551,0.427246
1026,-1.428223,0.324707,0.623535,-8.728027,-36.376953,-9.460449
1027,-1.404297,0.383789,0.620117,-28.930664,-33.508301,-16.540527
1028,-1.375488,0.397461,0.574707,-51.574707,-30.517578,-19.287109
1029,-1.278809,0.276855,0.382812,-80.749512,-24.353027,-25.329590
1030,-1.276367,0.214844,0.304688,-87.890625,-15.930176,-31.555176
1031,-1.304199,0.155762,0.223633,-91.735840,5.981445,-55.358887
1032,-1.308594,0.170898,0.217773,-89.538574,18.127441,-69.946289
1033,-1.376953,0.267090,0.325195,-83.679199,45.227051,-100.097656
1034,-1.409668,0.318848,0.437988,-80.322266,54.748535,-116.333008
1035,-1.427246,0.392090,0.581055,-76.782227,59.082031,-131.774902
1036,-1.414551,0.437500,0.698242,-76.721191,58.898926,-145.324707
1037,-1.378906,0.447754,0.787109,-81.054688,56.579590,-159.790039
1038,-1.242676,0.568848,0.936523,-89.782715,52.673340,-181.884766
1039,-1.211426,0.567383,0.984863,-88.378906,39.550781,-185.546875
1040,-1.166016,0.479492,1.000000,-53.161621,0.915527,-192.993164
1041,-1.185059,0.450684,1.014160,-30.578613,-22.216797,-200.561523
1042,-1.206543,0.486328,1.044922,-14.587402,-44.494629,-209.289551
1043,-1.305176,0.617188,1.156738,-19.592285,-77.636719,-220.581055
1044,-1.379395,0.672363,1.225098,-38.574219,-91.857910,-223.205566
1045,-1.416016,0.667969,1.213867,-66.040039,-105.712891,-226.257324
1046,-1.433105,0.632324,1.131348,-91.064453,-113.891602,-232.482910
1047,-1.478027,0.699707,1.063477,-99.182129,-135.009766,-251.159668
1048,-1.490234,0.775391,1.042969,-86.364746,-153.808594,-257.995605
1049,-1.541992,0.924316,1.005859,-55.297852,-191.345215,-262.145996
1050,-1.552246,1.005859,1.033203,-49.499512,-204.162598,-260.742188
1051,-1.524414,1.089355,1.009766,-50.537109,-216.125488,-253.540039
1052,-1.390625,1.136719,0.864258,-57.128906,-227.416992,-228.332520
1053,-1.310059,1.117188,0.810547,-65.307617,-227.539062,-215.942383
1054,-1.230957,1.074707,0.740723,-70.800781,-227.172852,-203.308105
1055,-1.079590,0.947754,0.674316,-80.017090,-220.764160,-185.302734
1056,-0.983398,0.924805,0.597656,-80.444336,-214.782715,-177.246094
1057,-0.862793,0.941406,0.572754,-75.866699,-207.275391,-165.161133
1058,-0.767090,0.971680,0.583008,-76.354980,-198.242188,-145.996094
1059,-0.697754,0.792480,0.555176,-95.397949,-185.180664,-100.769043
1060,-0.674805,0.619141,0.432617,-85.632324,-186.340332,-84.533691
1061,-0.609375,0.481934,0.303223,-62.438965,-186.645508,-73.364258
1062,-0.439941,0.356445,0.176758,-21.545410,-165.771484,-51.574707
1063,-0.392578,0.286621,0.212402,-25.634766,-142.395020,-40.039062
1064,-0.370117,0.178223,0.247070,-43.090820,-117.553711,-31.738281
1065,-0.331055,0.027832,0.248535,-63.232422,-71.655273,-27.465820
1066,-0.312500,-0.036621,0.312012,-57.312012,-55.908203,-25.939941
1067,-0.301270,-0.103027,0.370117,-39.062500,-48.950195,-22.827148
1068,-0.268066,-0.159668,0.385254,-11.901855,-47.790527,-18.798828
1069,-0.162109,-0.211426,0.439941,24.291992,-30.456543,-8.728027
1070,-0.142090,-0.222656,0.488281,20.080566,-10.009766,-3.051758
1071,-0.149902,-0.238770,0.559570,2.197266,14.648438,-0.854492
1072,-0.211426,-0.284180,0.738281,-33.386230,51.147461,-2.746582
1073,-0.236816,-0.306641,0.836426,-33.874512,50.048828,-4.028320
1074,-0.233398,-0.298340,0.893066,-21.789551,34.667969,-4.516602
1075,-0.222656,-0.261719,0.871582,-5.004883,13.366699,-2.441406
1076,-0.187988,-0.181152,0.781738,17.700195,-9.704590,13.427734
1077,-0.201172,-0.228027,0.805176,12.878418,-13.488770,21.972656
1078,-0.233398,-0.332520,0.832520,-1.220703,-18.005371,25.390625
1079,-0.226562,-0.543457,0.722656,-27.404785,-35.156250,15.441895
1080,-0.180664,-0.551758,0.583008,-28.747559,-42.663574,5.554199
1081,-0.116211,-0.501953,0.436523,-17.639160,-46.081543,-2.197266
1082,-0.062012,-0.434082,0.373047,-0.305176,-43.579102,-4.699707
1083,-0.084961,-0.429688,0.490723,20.385742,-39.550781,-4.089355
1084,-0.113770,-0.444336,0.561523,26.367188,-47.119141,-6.042480
1085,-0.104492,-0.452148,0.564941,36.560059,-60.058594,-7.263184
1086,-0.026367,-0.471680,0.481934,58.959961,-70.434570,-4.272461
1087,0.001465,-0.477051,0.476562,53.527832,-57.556152,-1.831055
1088,0.014160,-0.479980,0.503418,29.541016,-33.996582,-2.014160
1089,0.023926,-0.498047,0.570801,-5.493164,-7.141113,-3.601074
1090,-0.021484,-0.584961,0.687988,-43.273926,16.784668,-7.873535
1091,-0.042969,-0.625977,0.713867,-29.479980,7.507324,-10.437012
1092,-0.044434,-0.639160,0.719238,-4.516602,-7.629395,-14.587402
1093,0.014160,-0.575195,0.757324,36.193848,-32.653809,-19.470215
1094,0.043457,-0.544434,0.779297,41.992188,-36.560059,-18.615723
1095,0.068848,-0.537109,0.791016,40.832520,-35.583496,-16.174316
1096,0.094238,-0.524414,0.783691,29.479980,-22.094727,-11.901855
1097,0.091797,-0.508301,0.825195,21.911621,-10.070801,-9.704590
1098,0.087891,-0.493164,0.873535,17.639160,-0.793457,-5.493164
1099,0.067871,-0.504395,0.928711,17.333984,5.615234,-0.549316
1100,0.027832,-0.559570,1.090332,27.160645,2.563477,1.525879
1101,-0.012695,-0.541504,1.171875,38.269043,-9.033203,1.220703
1102,-0.028809,-0.495117,1.242676,48.706055,-24.719238,-0.549316
1103,0.071289,-0.391113,1.269531,58.715820,-56.579590,0.793457
1104,0.133789,-0.353516,1.227539,58.349609,-63.110352,7.080078
1105,0.170410,-0.333008,1.200195,35.339355,-50.903320,18.615723
1106,0.167969,-0.324707,1.194824,18.676758,-42.785645,23.315430
1107,0.153320,-0.307129,1.108887,3.295898,-29.663086,30.639648
1108,0.162598,-0.301758,1.080078,6.347656,-22.155762,33.752441
1109,0.170410,-0.303711,1.095215,11.657715,-11.718750,36.437988
1110,0.096680,-0.227051,1.222656,15.747070,5.432129,39.428711
1111,0.077148,-0.160156,1.293945,5.493164,12.329102,39.794922
1112,0.075195,-0.093750,1.331055,-12.756348,17.517090,42.785645
1113,0.064453,-0.070801,1.329102,-33.569336,20.629883,48.156738
1114,0.000000,-0.188477,1.268555,-57.128906,16.174316,52.734375
1115,-0.023926,-0.244629,1.223145,-50.903320,7.141113,50.964355
1116,-0.049316,-0.273438,1.174805,-35.217285,-7.507324,48.278809
1117,-0.057129,-0.267090,1.038574,-0.610352,-39.306641,40.527344
1118,-0.049316,-0.233887,0.969727,11.047363,-51.391602,38.574219
1119,-0.053711,-0.216309,0.838867,21.545410,-62.866211,39.001465
1120,-0.075195,-0.243652,0.797363,19.042969,-61.584473,39.855957
1121,-0.095703,-0.282715,0.773926,11.474609,-59.814453,37.658691
1122,-0.097656,-0.316895,0.716309,-10.070801,-54.992676,20.568848
1123,-0.055176,-0.333496,0.543457,-12.268066,-46.569824,12.512207
1124,0.000000,-0.304199,0.557129,-6.713867,-40.405273,4.821777
1125,0.013672,-0.255859,0.544434,8.605957,-36.499023,1.159668
1126,0.016113,-0.191406,0.600098,67.871094,-41.503906,0.793457
1127,0.007812,-0.172363,0.604004,100.158691,-48.889160,5.859375
1128,0.005859,-0.159668,0.598633,136.840820,-57.250977,15.441895
1129,0.038574,-0.244141,0.748047,202.209473,-64.453125,20.996094
1130,0.126465,-0.197266,0.979004,203.002930,-54.992676,13.000488
1131,0.178711,-0.101074,1.171387,161.376953,-25.085449,5.615234
1132,0.078125,-0.035645,1.363281,27.282715,43.518066,5.798340
1133,-0.047363,-0.178711,1.383789,-11.474609,42.785645,8.117676
1134,-0.124023,-0.179199,1.360352,-47.363281,21.301270,1.525879
1135,-0.083008,-0.239746,1.065430,-74.645996,-43.823242,3.601074
1136,-0.055176,-0.221680,0.860840,-77.514648,-57.434082,1.464844
1137,-0.063965,-0.146484,0.736328,-80.078125,-49.255371,-4.516602
1138,-0.041016,-0.184570,0.688965,-41.809082,-8.911133,-19.348145
1139,-0.002441,-0.342773,0.779785,-1.220703,-0.488281,-32.653809
1140,0.004395,-0.459961,0.837891,41.870117,-2.563477,-50.231934
1141,0.011230,-0.442871,0.858887,79.589844,-4.638672,-59.509277
1142,0.108887,-0.353027,1.121582,87.829590,10.131836,-44.677734
1143,0.145508,-0.307617,1.192871,46.936035,25.939941,-33.630371
1144,-0.008301,-0.249023,1.166504,-38.696289,64.392090,-27.954102
1145,-0.069824,-0.295410,1.123047,-65.185547,77.697754,-37.902832
1146,-0.087402,-0.325684,1.077637,-64.208984,88.562012,-54.870605
1147,-0.052246,-0.327148,1.171387,-43.334961,100.341797,-72.204590
1148,0.035645,0.019531,1.527832,2.502441,94.177246,-75.256348
1149,-0.038574,0.178223,1.608398,2.075195,78.063965,-60.363770
1150,-0.193359,0.308105,1.638184,-29.846191,13.244629,-28.198242
1151,-0.203613,0.255371,1.566406,-52.429199,-33.752441,-8.789062
1152,-0.225098,0.065430,1.390625,-77.148438,-78.002930,5.737305
1153,-0.081055,-0.386230,0.635254,-105.102539,-111.145020,-3.173828
1154,0.115234,-0.411133,0.297363,-89.538574,-62.316895,-17.822266
1155,0.229980,-0.307617,0.314941,-64.880371,1.892090,-23.437500
1156,0.147461,-0.186035,0.546387,-46.936035,39.978027,-18.920898
1157,-0.058105,-0.193848,0.975098,-21.118164,30.883789,-4.821777
1158,-0.076172,-0.266602,1.022461,-17.761230,2.319336,-5.615234
1159,-0.081543,-0.308594,0.931641,-20.141602,-22.705078,-10.925293
1160,-0.013184,-0.215332,0.611328,-10.864258,-36.621094,-9.704590
1161,0.022949,-0.300293,0.594238,1.464844,-48.034668,-11.596680
1162,0.049805,-0.356445,0.456055,4.211426,-51.025391,-16.357422
1163,0.120117,-0.395020,0.351074,7.995605,-31.677246,-21.606445
1164,0.095215,-0.458984,0.360352,33.813477,11.291504,-24.963379
1165,0.111328,-0.474121,0.452637,51.269531,27.343750,-25.817871
1166,0.118164,-0.478516,0.648438,67.077637,32.287598,-24.291992
1167,0.103516,-0.364746,1.029785,56.518555,10.009766,-36.071777
1168,0.129883,-0.215820,1.144043,14.221191,9.216309,-39.794922
1169,0.147949,-0.092773,1.193359,-37.780762,12.634277,-30.090332
1170,0.167480,-0.135254,0.982422,-79.956055,3.662109,11.840820
1171,0.201660,-0.272949,0.907715,-69.580078,-6.774902,30.578613
1172,0.201172,-0.420898,0.854004,-53.161621,-17.822266,39.001465
1173,0.166992,-0.500488,0.786133,-43.640137,-17.089844,37.536621
1174,0.134766,-0.537109,0.975586,-47.363281,7.446289,26.550293
1175,0.142090,-0.486328,1.030762,-64.636230,11.352539,25.085449
1176,0.075684,-0.502930,0.930176,-54.565430,8.972168,25.451660
1177,0.100586,-0.439453,1.022949,-13.854980,10.253906,29.724121
1178,0.091309,-0.411621,1.118164,6.774902,4.272461,30.639648
1179,0.082520,-0.382812,1.205566,23.925781,-7.080078,33.447266
1180,0.095703,-0.363770,1.247559,40.283203,-31.127930,44.006348
1181,0.078125,-0.424805,1.224121,40.344238,-34.362793,50.476074
1182,0.044922,-0.509766,1.191895,31.860352,-29.602051,50.292969
1183,0.110352,-0.530762,1.049805,7.995605,-9.155273,32.043457
1184,0.153809,-0.446777,1.004883,-1.342773,13.610840,24.475098
1185,0.168945,-0.366211,1.081543,-0.671387,34.851074,19.958496
1186,0.100098,-0.236328,1.350586,37.414551,33.447266,16.479492
1187,0.076172,-0.160645,1.422852,50.598145,21.118164,17.272949
1188,0.071289,-0.107910,1.466309,49.743652,10.681152,16.784668
1189,0.089355,0.057617,1.387695,7.141113,-4.821777,19.836426
1190,0.091797,0.061035,1.239258,-15.258789,-10.375977,26.794434
1191,0.080078,-0.015137,1.040527,-24.963379,-12.695312,32.592773
1192,0.051270,-0.257324,0.824707,11.535645,-7.324219,30.761719
1193,0.017578,-0.309570,0.868164,38.024902,-7.629395,23.376465
1194,0.000488,-0.275879,0.900391,53.283691,-7.934570,15.014648
1195,-0.008789,-0.084961,0.894531,53.100586,-0.915527,15.014648
1196,-0.016602,-0.108398,0.907227,47.546387,-2.075195,18.859863
1197,-0.036621,-0.127441,0.873535,37.475586,-6.408691,17.761230
1198,-0.036621,-0.138672,0.809570,9.765625,-11.047363,25.390625
1199,-0.048828,-0.192383,0.732910,-7.080078,-15.380859,26.916504
1200,-0.056641,-0.269043,0.606934,-20.629883,-18.005371,23.437500
1201,-0.034180,-0.293457,0.523926,-24.719238,-16.540527,17.700195
1202,-0.008301,-0.241699,0.488770,-15.319824,-16.296387,16.723633
1203,0.047852,-0.219727,0.428711,5.187988,-17.150879,21.972656
1204,0.062988,-0.234375,0.392578,10.498047,-7.141113,21.972656
1205,0.061035,-0.234863,0.380371,17.578125,6.958008,21.972656
1206,-0.003906,-0.277344,0.485352,35.827637,36.315918,22.277832
1207,-0.055664,-0.315430,0.609863,34.423828,46.936035,16.052246
1208,-0.195312,-0.240723,0.884277,19.592285,47.119141,7.568359
1209,-0.223145,-0.177734,1.045898,-54.748535,2.502441,-4.821777
1210,-0.060547,-0.191406,0.649902,-69.885254,8.728027,-1.220703
1211,-0.042480,-0.240723,0.566406,-70.800781,31.005859,2.258301
1212,-0.096191,-0.305176,0.561035,-59.020996,50.415039,0.732422
1213,-0.150391,-0.322754,0.629883,-42.236328,58.105469,-4.943848
1214,-0.223145,-0.299805,0.784180,-36.926270,66.955566,-31.250000
1215,-0.258789,-0.224121,0.896484,-53.283691,73.486328,-40.222168
1216,-0.354004,-0.187988,0.940430,-94.238281,96.374512,-44.006348
1217,-0.363770,-0.183594,0.921875,-102.783203,103.454590,-37.292480
1218,-0.324707,-0.178223,0.883789,-102.844238,105.957031,-26.062012
1219,-0.189453,-0.293457,0.808594,-88.623047,110.595703,8.483887
1220,-0.236328,-0.461426,0.827148,-65.185547,113.403320,17.272949
1221,-0.358887,-0.574707,0.854492,-30.334473,112.548828,10.192871
1222,-0.619141,-0.524414,0.925781,43.518066,101.562500,-20.324707
1223,-0.733398,-0.497070,0.914062,72.326660,88.378906,-32.043457
1224,-0.809082,-0.396484,0.911133,93.261719,74.523926,-42.358398
1225,-0.648926,-0.142090,0.950195,70.068359,88.012695,-61.157227
1226,-0.523926,-0.083496,1.015625,49.743652,111.206055,-56.213379
1227,-0.493164,-0.064453,1.141602,32.714844,133.422852,-47.363281
1228,-0.503906,-0.073730,1.254395,22.277832,140.136719,-41.748047
1229,-0.478516,-0.053711,1.260742,43.640137,120.849609,-27.404785
1230,-0.483887,0.006836,1.271973,49.316406,96.374512,-13.305664
1231,-0.470703,0.023438,1.149414,37.353516,54.931641,13.244629
1232,-0.504883,-0.115234,0.774902,26.428223,51.696777,19.226074
1233,-0.557617,-0.221680,0.608887,18.554688,59.509277,15.014648
1234,-0.591309,-0.272949,0.484375,27.221680,78.186035,2.319336
1235,-0.532227,-0.385742,0.701172,77.026367,108.886719,-26.611328
1236,-0.427246,-0.271973,0.881836,86.730957,109.252930,-32.226562
1237,-0.334473,-0.125488,1.007324,76.171875,101.135254,-23.254395
1238,-0.283203,-0.090332,0.930176,52.978516,88.928223,4.577637
1239,-0.294434,-0.110352,0.857422,41.381836,81.726074,9.399414
1240,-0.269531,-0.283691,0.709961,12.145996,72.448730,6.225586
1241,-0.289062,-0.418457,0.561523,4.272461,72.570801,-3.540039
1242,-0.715332,-0.829590,0.269531,31.005859,77.148438,-32.836914
1243,-0.577148,-0.652832,0.440430,85.510254,72.937012,-87.524414
1244,-0.334473,-0.018066,0.616211,146.057129,50.598145,-94.665527
1245,-0.331055,0.181641,0.831055,138.000488,53.405762,-78.735352
1246,-0.250488,0.292480,0.897949,113.098145,44.433594,-58.288574
1247,-0.144043,0.241699,0.755371,65.551758,43.518066,0.732422
1248,-0.176270,0.153809,0.718262,41.137695,54.687500,25.085449
1249,-0.218750,0.073730,0.684082,21.423340,69.213867,42.785645
1250,-0.281738,-0.002441,0.726074,7.141113,83.862305,55.969238
1251,-0.464844,-0.189941,0.873047,-15.014648,105.407715,75.683594
1252,-0.532227,-0.336914,0.944336,-32.897949,111.083984,79.101562
1253,-0.561523,-0.453613,0.908203,-46.813965,115.722656,78.552246
1254,-0.579102,-0.195801,1.098633,-56.884766,110.717773,81.909180
1255,-0.704102,-0.195312,0.970215,-36.865234,86.608887,105.834961
1256,-0.819336,-0.229980,1.072266,-29.113770,81.726074,115.051270
1257,-0.864746,-0.212891,1.101074,-37.170410,77.026367,118.530273
1258,-0.941406,-0.197754,1.058594,-42.785645,73.242188,122.741699
1259,-1.063965,-0.392578,0.987305,-19.348145,63.659668,127.197266
1260,-1.168457,-0.525879,1.025391,-1.281738,63.232422,117.492676
1261,-1.221191,-0.551270,1.148926,1.098633,65.551758,100.219727
1262,-1.234375,-0.486328,1.299805,-15.563965,60.363770,71.105957
1263,-1.217773,-0.450195,1.346191,-14.831543,47.241211,64.392090
1264,-1.188965,-0.398926,1.404297,-16.357422,30.395508,62.072754
1265,-1.132812,-0.350098,1.383301,-22.216797,11.352539,63.415527
1266,-1.029785,-0.307129,1.181641,-34.362793,-3.234863,67.993164
1267,-1.024414,-0.317383,1.143555,-47.363281,-4.333496,65.124512
1268,-1.025391,-0.316406,1.078613,-66.162109,-5.004883,58.532715
1269,-1.102539,-0.272949,0.902344,-95.886230,1.953125,39.794922
1270,-1.090820,-0.219727,0.819824,-95.092773,2.929688,32.653809
1271,-0.988281,-0.194336,0.721191,-84.045410,7.507324,26.000977
1272,-0.937012,-0.214844,0.714844,-84.350586,11.169434,23.071289
1273,-0.879395,-0.259766,0.703125,-88.317871,14.587402,18.920898
1274,-0.856445,-0.303223,0.686523,-91.857910,18.249512,12.268066
1275,-0.797852,-0.290527,0.639648,-100.219727,18.737793,-7.324219
1276,-0.779297,-0.234863,0.648438,-110.107422,23.498535,-17.272949
1277,-0.736328,-0.085449,0.619629,-138.122559,20.568848,-29.724121
1278,-0.704590,-0.015137,0.547363,-146.728516,16.662598,-31.250000
1279,-0.666504,0.019043,0.454102,-149.169922,13.977051,-30.761719
1280,-0.649902,0.029785,0.359375,-143.188477,14.099121,-30.700684
1281,-0.641113,0.001465,0.251953,-118.469238,19.653320,-43.090820
1282,-0.649902,0.095215,0.224609,-104.553223,29.052734,-42.053223
1283,-0.691406,0.128906,0.275391,-90.881348,32.531738,-38.940430
1284,-0.724609,0.271484,0.358887,-61.889648,30.151367,-38.085938
1285,-0.724121,0.401367,0.398438,-56.457520,25.573730,-33.447266
1286,-0.734375,0.500977,0.428223,-59.997559,19.042969,-20.996094
1287,-0.741211,0.506836,0.226562,-64.514160,4.211426,10.192871
1288,-0.772461,0.469238,0.093750,-61.157227,11.169434,18.859863
1289,-0.830566,0.458496,0.048340,-55.725098,26.123047,22.583008
1290,-0.909668,0.484375,0.074219,-47.485352,40.527344,24.841309
1291,-0.978027,0.549316,0.177246,-32.104492,57.922363,31.494141
1292,-0.997559,0.554199,0.213379,-21.301270,61.462402,40.649414
1293,-1.011719,0.513672,0.291016,-14.587402,60.302734,48.217773
1294,-1.006836,0.506348,0.375000,-16.906738,52.978516,56.945801
1295,-1.012207,0.550781,0.311523,-18.798828,53.466797,59.326172
1296,-1.025879,0.606445,0.312500,-2.380371,56.579590,65.063477
1297,-1.088867,0.583008,0.400879,21.850586,49.621582,68.969727
1298,-1.152832,0.631348,0.260742,45.349121,51.635742,54.992676
1299,-1.178223,0.706543,0.360352,60.913086,63.293457,56.152344
1300,-1.202637,0.753906,0.430176,86.853027,65.551758,60.607910
1301,-1.123047,0.818848,0.761230,119.628906,50.048828,86.669922
1302,-1.075195,0.752930,0.812988,100.036621,43.884277,107.849121
1303,-1.102051,0.448242,0.803223,53.527832,40.161133,133.483887
1304,-1.110352,0.339844,0.766113,42.785645,38.085938,135.314941
1305,-1.111328,0.224121,0.769531,41.503906,34.790039,137.329102
1306,-1.160645,0.111816,0.821289,42.968750,28.625488,133.728027
1307,-1.156738,0.035156,0.822266,52.001953,3.967285,114.929199
1308,-1.112305,0.045410,0.792969,63.171387,-8.789062,104.980469
1309,-1.057129,0.060547,0.766113,77.392578,-22.827148,96.984863
1310,-0.946289,0.082520,0.692383,107.116699,-51.025391,88.623047
1311,-0.880859,0.067383,0.622559,119.506836,-62.500000,86.730957
1312,-0.809082,0.040527,0.568359,129.394531,-70.983887,84.899902
1313,-0.690430,-0.052246,0.500977,117.919922,-76.660156,75.073242
1314,-0.627441,-0.081055,0.416016,108.032227,-75.500488,68.420410
1315,-0.577148,-0.110352,0.289062,106.994629,-71.228027,61.462402
1316,-0.556152,-0.114258,0.203125,118.286133,-62.805176,55.297852
1317,-0.585938,-0.030762,0.281250,134.826660,-53.222656,41.503906
1318,-0.586426,0.024414,0.267578,132.568359,-49.255371,35.644531
1319,-0.618652,0.104980,0.287109,131.408691,-42.053223,32.226562
1320,-0.732910,0.294434,0.457520,148.803711,-40.832520,44.677734
1321,-0.802246,0.339844,0.545410,159.118652,-51.696777,60.485840
1322,-0.847656,0.306152,0.542480,157.287598,-60.974121,74.768066
1323,-0.866211,0.181641,0.435059,127.258301,-60.852051,89.782715
1324,-0.889160,0.159668,0.401855,105.102539,-50.415039,92.651367
1325,-0.896484,0.187012,0.395996,81.359863,-37.780762,97.717285
1326,-0.996094,0.151855,0.394531,41.320801,-15.441895,118.408203
1327,-1.079590,0.150391,0.406738,22.949219,-3.112793,124.389648
1328,-1.144043,0.152344,0.431152,3.479004,6.103516,133.300781
1329,-1.252930,0.000488,0.405273,-21.118164,22.155762,144.714355
1330,-1.307129,-0.093262,0.466797,-24.963379,29.174805,142.395020
1331,-1.355469,-0.214355,0.528809,-30.517578,31.250000,134.582520
1332,-1.437988,-0.419922,0.625000,-47.180176,28.137207,100.524902
1333,-1.433105,-0.429688,0.670898,-52.246094,21.545410,50.048828
1334,-1.497070,-0.392090,0.709961,-54.504395,25.268555,22.338867
1335,-1.555176,-0.303711,0.786133,-57.556152,30.090332,-8.483887
1336,-1.542969,-0.021484,0.887695,-52.185059,28.198242,-48.400879
1337,-1.534180,0.076660,0.906738,-43.334961,23.254395,-58.105469
1338,-1.480469,0.163574,0.946777,-35.217285,15.869141,-63.110352
1339,-1.408691,0.216309,0.960449,-32.836914,5.615234,-63.659668
1340,-1.240234,0.208984,0.905273,-61.645508,-8.728027,-62.194824
1341,-1.200195,0.145996,0.796875,-83.129883,-10.925293,-63.842773
1342,-1.209473,0.076660,0.686035,-102.111816,-6.347656,-72.448730
1343,-1.246094,0.092773,0.592773,-133.544922,13.916016,-103.149414
1344,-1.266602,0.142578,0.573730,-144.775391,26.123047,-119.018555
1345,-1.267578,0.201660,0.569824,-151.733398,39.367676,-132.934570
1346,-1.261719,0.354492,0.649414,-144.958496,64.880371,-147.644043
1347,-1.209961,0.467773,0.713379,-124.877930,67.260742,-145.812988
1348,-1.142090,0.530762,0.815430,-100.036621,61.584473,-137.634277
1349,-0.992188,0.474121,0.939941,-86.547852,47.485352,-122.436523
1350,-0.936035,0.393066,0.958984,-93.566895,39.367676,-118.286133
1351,-0.889648,0.335938,0.955078,-108.154297,31.555176,-118.896484
1352,-0.848633,0.256836,0.788574,-131.958008,18.676758,-128.540039
1353,-0.832031,0.243652,0.691406,-130.798340,15.502930,-133.911133
1354,-0.827637,0.241699,0.630371,-126.159668,16.418457,-140.625000
1355,-0.874512,0.280273,0.572754,-106.262207,24.353027,-153.869629
1356,-0.926758,0.370605,0.645996,-93.750000,22.094727,-158.203125
1357,-0.919922,0.475098,0.685547,-88.317871,13.977051,-159.057617
1358,-0.832031,0.532715,0.658203,-80.200195,0.122070,-144.226074
1359,-0.804688,0.507812,0.641602,-83.374023,-2.380371,-140.197754
1360,-0.797363,0.503418,0.579102,-87.707520,1.098633,-138.305664
1361,-0.854492,0.595215,0.583984,-86.791992,10.803223,-135.437012
1362,-0.875977,0.689941,0.568359,-80.505371,11.718750,-128.356934
1363,-0.858887,0.775879,0.559082,-68.115234,9.643555,-117.309570
1364,-0.766602,0.824707,0.503906,-42.053223,-4.455566,-85.754395
1365,-0.725586,0.776367,0.438965,-38.879395,-4.089355,-73.242188
1366,-0.708496,0.746094,0.387207,-37.048340,0.793457,-65.917969
1367,-0.721191,0.862305,0.367676,-24.597168,6.408691,-56.945801
1368,-0.716309,0.916016,0.371094,-14.343262,4.028320,-47.729492
1369,-0.712402,0.949707,0.382812,-10.986328,2.014160,-36.499023
1370,-0.706543,0.949219,0.401855,-37.902832,4.150391,-9.155273
1371,-0.723633,0.960449,0.315918,-50.720215,3.967285,6.408691
1372,-0.757324,1.000488,0.170898,-47.607422,5.432129,25.329590
1373,-0.933105,0.962891,0.122070,-4.211426,20.019531,59.692383
1374,-1.055664,0.909668,0.199219,14.648438,25.268555,71.166992
1375,-1.132324,0.878418,0.259277,34.301758,30.517578,79.589844
1376,-1.155273,0.875977,0.356934,57.800293,34.057617,90.393066
1377,-1.148438,0.780273,0.566895,83.557129,32.531738,117.492676
1378,-1.134277,0.708984,0.644043,79.833984,32.653809,130.615234
1379,-1.143066,0.616211,0.697266,69.091797,32.104492,142.700195
1380,-1.119141,0.409180,0.735352,46.936035,28.442383,157.775879
1381,-1.107422,0.308105,0.732910,42.419434,24.902344,161.987305
1382,-1.117676,0.205566,0.750000,42.480469,19.287109,162.597656
1383,-1.142578,0.075195,0.746582,42.114258,2.258301,147.460938
1384,-1.117676,0.070801,0.702148,47.668457,-8.361816,137.573242
1385,-1.078613,0.088379,0.649414,56.640625,-21.118164,129.516602
1386,-1.031250,0.099121,0.573730,70.007324,-33.386230,124.206543
1387,-0.900879,0.120117,0.488770,87.707520,-49.377441,118.469238
1388,-0.845703,0.122559,0.467773,85.449219,-50.781250,119.506836
1389,-0.805176,0.020996,0.445801,54.687500,-50.598145,117.492676
1390,-0.774414,-0.053223,0.322266,32.653809,-47.973633,113.891602
1391,-0.771484,-0.104492,0.141602,26.855469,-39.367676,106.262207
1392,-0.799805,-0.065918,0.142090,78.125000,-33.874512,90.209961
1393,-0.783691,-0.057129,0.179199,102.661133,-34.423828,80.627441
1394,-0.755859,-0.027344,0.186035,112.304688,-33.020020,68.908691
1395,-0.738770,0.114258,0.210938,114.257812,-15.197754,55.358887
1396,-0.773438,0.213867,0.317383,114.440918,-7.507324,57.312012
1397,-0.822266,0.287109,0.417969,108.947754,-2.441406,64.208984
1398,-0.916504,0.346191,0.579102,79.406738,-2.807617,89.416504
1399,-0.952148,0.312500,0.562988,67.321777,-7.324219,103.698730
1400,-0.965820,0.271484,0.543945,59.814453,-10.192871,116.394043
1401,-1.051270,0.158691,0.560547,54.321289,-18.737793,136.108398
1402,-1.107422,0.098145,0.530273,52.917480,-23.620605,141.845703
1403,-1.187500,0.008301,0.504883,55.114746,-26.306152,144.042969
1404,-1.300781,-0.226562,0.470215,49.438477,-25.817871,134.582520
1405,-1.303223,-0.308594,0.437988,44.860840,-21.667480,123.840332
1406,-1.309082,-0.362305,0.448730,37.414551,-14.282227,110.961914
1407,-1.328125,-0.427246,0.541992,18.737793,-3.723145,83.557129
1408,-1.335938,-0.459473,0.595215,4.150391,1.342773,67.138672
1409,-1.323242,-0.467773,0.619629,-12.451172,5.065918,48.828125
1410,-1.334961,-0.341797,0.699219,-39.062500,16.967773,10.314941
1411,-1.337402,-0.236328,0.772461,-53.833008,21.179199,-5.493164
1412,-1.349121,-0.151855,0.812012,-63.049316,24.108887,-18.920898
1413,-1.350098,0.036133,0.961914,-61.706543,12.329102,-35.888672
1414,-1.329590,0.107422,1.005371,-64.270020,0.854492,-38.085938
1415,-1.292480,0.143555,0.966797,-75.195312,-9.277344,-39.123535
1416,-1.259277,0.116211,0.770020,-106.567383,-13.549805,-40.405273
1417,-1.216797,0.060547,0.641113,-115.966797,-14.587402,-42.175293
1418,-1.193848,-0.000977,0.496582,-119.628906,-10.070801,-47.241211
1419,-1.222656,-0.051270,0.359863,-118.896484,17.761230,-71.289062
1420,-1.251953,-0.021484,0.395996,-118.408203,33.935547,-86.669922
1421,-1.263184,0.027832,0.460938,-117.858887,48.767090,-101.684570
1422,-1.285645,0.182129,0.666504,-115.478516,71.655273,-125.427246
1423,-1.276855,0.285645,0.821289,-118.164062,77.514648,-133.605957
1424,-1.236816,0.373535,0.936035,-123.840332,78.552246,-135.742188
1425,-1.152832,0.390625,1.014648,-124.755859,68.908691,-129.028320
1426,-1.073242,0.363770,0.980957,-117.553711,62.561035,-124.572754
1427,-1.000977,0.381836,1.109375,-110.046387,50.903320,-115.478516
1428,-0.968750,0.323730,1.074707,-121.276855,40.405273,-111.877441
1429,-0.942871,0.267578,0.951660,-124.084473,31.799316,-111.694336
1430,-0.927734,0.228516,0.872070,-118.896484,26.306152,-114.929199
1431,-0.922852,0.218750,0.801758,-110.534668,17.578125,-124.389648
1432,-0.925293,0.225098,0.769043,-109.924316,15.258789,-130.187988
1433,-0.919922,0.241211,0.728027,-108.337402,14.099121,-134.887695
1434,-0.933105,0.348633,0.718750,-102.478027,13.427734,-142.150879
1435,-0.932129,0.419922,0.741699,-97.595215,12.573242,-140.991211
1436,-0.909180,0.483887,0.755371,-97.656250,10.375977,-137.878418
1437,-0.898438,0.543457,0.710449,-104.797363,11.474609,-126.403809
1438,-0.903320,0.539062,0.677734,-105.773926,14.465332,-120.544434
1439,-0.886719,0.535645,0.676758,-108.154297,16.418457,-116.516113
1440,-0.864746,0.554688,0.615723,-111.755371,20.019531,-114.013672
1441,-0.869141,0.606934,0.554199,-110.107422,32.409668,-112.609863
1442,-0.848633,0.679199,0.541992,-101.379395,36.315918,-110.351562
1443,-0.811523,0.854004,0.544922,-76.049805,35.400391,-94.726562
1444,-0.758789,0.947754,0.569336,-52.368164,27.832031,-78.247070
1445,-0.704590,0.960449,0.600586,-27.832031,11.474609,-58.288574
1446,-0.571289,0.889160,0.457031,10.375977,-16.235352,-27.832031
1447,-0.525391,0.854004,0.383301,20.324707,-23.437500,-17.456055
1448,-0.510254,0.841797,0.278320,26.611328,-25.085449,-9.643555
1449,-0.533203,0.834961,0.202637,33.691406,-20.751953,-3.417969
1450,-0.652832,0.878906,0.216309,46.325684,-8.300781,11.962891
1451,-0.699219,0.901367,0.204590,47.180176,-2.868652,23.742676
1452,-0.808594,0.870605,0.162598,41.076660,18.310547,47.546387
1453,-0.886719,0.877441,0.204102,39.611816,33.447266,60.485840
1454,-0.965332,0.893066,0.285645,40.222168,44.921875,75.744629
1455,-1.047363,0.846680,0.435547,47.485352,56.640625,110.168457
1456,-1.043457,0.775879,0.496582,50.720215,56.945801,126.647949
1457,-1.065430,0.702148,0.585449,44.921875,58.349609,142.150879
1458,-1.195801,0.513672,0.637207,8.850098,57.189941,165.344238
1459,-1.217773,0.427246,0.614746,1.525879,54.260254,171.203613
1460,-1.231445,0.339355,0.630859,6.835938,47.363281,175.720215
1461,-1.276367,0.143066,0.667480,29.907227,24.353027,172.485352
1462,-1.291504,0.088867,0.683594,44.372559,11.779785,164.489746
1463,-1.286133,0.070801,0.696777,64.392090,-2.441406,155.639648
1464,-1.216797,0.057617,0.707520,105.529785,-36.376953,139.160156
1465,-1.148438,0.069336,0.668457,118.591309,-51.452637,132.995605
1466,-0.997559,0.070312,0.530762,132.324219,-69.946289,127.197266
1467,-0.954102,0.042480,0.486816,132.202148,-71.044922,124.450684
1468,-0.911133,0.011230,0.463379,125.183105,-69.763184,120.788574
1469,-0.884766,-0.035645,0.432617,110.839844,-65.734863,115.722656
1470,-0.833008,-0.108398,0.299316,76.660156,-52.795410,99.426270
1471,-0.813965,-0.101074,0.207520,73.913574,-43.579102,89.782715
1472,-0.803711,-0.065918,0.173828,81.298828,-32.104492,79.895020
1473,-0.819336,0.112793,0.363770,95.764160,-14.404297,67.932129
1474,-0.830078,0.208008,0.451172,93.505859,-12.084961,69.030762
1475,-0.848633,0.260742,0.486328,91.308594,-11.718750,75.012207
1476,-0.892578,0.317871,0.573242,90.881348,-18.432617,94.116211
1477,-0.912109,0.288574,0.583496,84.106445,-21.667480,104.797363
1478,-0.931641,0.239746,0.560547,73.852539,-22.949219,114.318848
1479,-1.045898,0.132812,0.564941,52.856445,-18.493652,127.136230
1480,-1.078125,0.069824,0.569336,38.818359,-18.981934,130.554199
1481,-1.141602,-0.076660,0.518066,20.202637,-21.362305,128.906250
1482,-1.156738,-0.132812,0.505859,16.784668,-23.742676,122.009277
1483,-1.144531,-0.207031,0.488281,26.977539,-27.587891,101.440430
1484,-1.147461,-0.175293,0.573242,30.578613,-29.846191,90.087891
1485,-1.169434,-0.142578,0.616211,26.306152,-34.179688,80.810547
1486,-1.168457,-0.101074,0.524414,5.676270,-33.935547,66.345215
1487,-1.191895,-0.098145,0.517578,-9.582520,-26.733398,59.265137
1488,-1.210938,-0.095703,0.521973,-27.893066,-18.249512,51.879883
1489,-1.229004,-0.113770,0.500488,-43.151855,-10.437012,44.189453
1490,-1.305176,-0.126465,0.509277,-54.870605,8.422852,20.996094
1491,-1.333984,-0.079590,0.565918,-56.762695,14.587402,6.896973
1492,-1.339355,-0.014160,0.620117,-56.701660,15.197754,-5.798340
1493,-1.314453,0.122070,0.674316,-52.734375,6.652832,-19.042969
1494,-1.309570,0.167480,0.710938,-57.189941,2.319336,-20.874023
1495,-1.291016,0.200684,0.699707,-67.626953,-4.394531,-19.714355
1496,-1.201172,0.119141,0.495605,-90.698242,-10.559082,-12.390137
1497,-1.190430,0.021973,0.362793,-99.243164,-2.685547,-13.732910
1498,-1.223633,-0.093750,0.250977,-111.389160,30.761719,-36.193848
1499,-1.236328,-0.109863,0.256348,-113.281250,49.804688,-52.124023
1500,-1.280762,-0.097656,0.312500,-112.976074,69.885254,-69.702148
1501,-1.349609,-0.047852,0.422852,-115.539551,91.064453,-88.317871
1502,-1.449707,0.084961,0.699707,-120.849609,120.849609,-121.643066
1503,-1.417480,0.149902,0.801758,-109.436035,123.046875,-130.371094
1504,-1.366211,0.196289,0.907227,-92.041016,117.187500,-135.498047
1505,-1.168945,0.351074,1.032227,-96.008301,107.177734,-136.657715
1506,-1.069336,0.355469,1.055176,-128.845215,108.703613,-133.850098
1507,-1.002441,0.304688,0.961426,-186.828613,115.600586,-132.019043
1508,-1.038086,0.255859,0.935547,-191.528320,113.281250,-133.850098
1509,-1.098633,0.208008,0.911133,-176.818848,103.637695,-139.953613
1510,-1.138184,0.191406,0.894043,-149.841309,90.515137,-150.756836
1511,-1.091797,0.204590,0.829102,-80.566406,55.297852,-174.377441
1512,-1.058105,0.224609,0.789062,-50.537109,39.489746,-185.791016
1513,-1.030762,0.256836,0.754883,-25.512695,25.207520,-197.387695
1514,-0.940918,0.415039,0.631836,8.605957,1.159668,-214.599609
1515,-0.925293,0.583496,0.567871,8.056641,4.028320,-216.247559
1516,-0.943359,0.734863,0.677734,-10.498047,13.183594,-209.472656
1517,-0.854980,0.902344,0.659668,-64.941406,18.615723,-173.828125
1518,-0.831055,0.872559,0.633301,-75.317383,19.775391,-148.010254
1519,-0.814453,0.794922,0.610352,-80.200195,19.287109,-126.342773
1520,-0.774414,0.629883,0.484375,-87.158203,17.456055,-96.252441
1521,-0.775391,0.595703,0.368164,-82.275391,21.850586,-86.730957
1522,-0.813477,0.584473,0.296387,-71.838379,32.470703,-80.444336
1523,-0.819824,0.597168,0.315430,-59.997559,43.518066,-76.171875
1524,-0.809570,0.656738,0.424805,-45.288086,56.457520,-60.180664
1525,-0.769043,0.675293,0.489746,-47.302246,56.823730,-48.706055
1526,-0.740723,0.678711,0.532227,-56.152344,54.260254,-35.217285
1527,-0.720215,0.656738,0.555176,-85.327148,49.560547,-8.056641
1528,-0.744141,0.642578,0.512207,-86.303711,44.433594,5.920410
1529,-0.860840,0.666504,0.500488,-39.001465,24.169922,33.447266
1530,-0.912109,0.655762,0.528320,-6.286621,8.117676,42.724609
1531,-0.951660,0.633301,0.522461,20.812988,-6.408691,48.278809
1532,-0.969238,0.602051,0.515625,57.067871,-27.221680,53.894043
1533,-0.944824,0.631836,0.403320,75.683594,-32.043457,58.288574
1534,-0.940918,0.657227,0.417969,93.750000,-35.217285,65.917969
1535,-0.911133,0.674316,0.434082,107.910156,-38.940430,78.247070
1536,-0.909180,0.583008,0.504395,111.633301,-39.306641,109.069824
1537,-0.929688,0.504883,0.530762,102.844238,-37.475586,121.887207
1538,-0.980469,0.345703,0.559082,78.491211,-33.874512,140.502930
1539,-1.019043,0.275391,0.555664,65.551758,-33.691406,145.935059
1540,-1.058105,0.217285,0.523926,51.879883,-32.836914,146.728516
1541,-1.094727,0.208008,0.443848,32.653809,-29.663086,140.747070
1542,-1.095703,0.232422,0.415527,31.738281,-28.930664,139.831543
1543,-1.066895,0.240234,0.379883,35.644531,-30.212402,141.784668
1544,-0.993164,0.183105,0.375488,49.255371,-32.287598,146.911621
1545,-0.941895,0.136230,0.374023,49.682617,-32.958984,148.010254
1546,-0.898438,0.085938,0.376465,48.889160,-32.592773,147.155762
1547,-0.853516,0.040527,0.387207,46.142578,-32.531738,143.615723
1548,-0.782715,-0.020996,0.407715,34.973145,-31.311035,131.774902
1549,-0.784180,-0.037109,0.426758,26.977539,-31.921387,124.389648
1550,-0.800781,-0.025391,0.421875,20.141602,-34.790039,116.943359
1551,-0.886719,0.023438,0.379395,24.353027,-43.762207,103.332520
1552,-0.930664,0.062988,0.345703,33.081055,-48.767090,97.290039
1553,-0.988770,0.132812,0.275391,67.443848,-55.297852,91.735840
1554,-1.003906,0.150391,0.272461,87.036133,-56.091309,89.660645
1555,-1.005371,0.166992,0.304199,99.121094,-52.551270,87.646484
1556,-1.018066,0.209961,0.374023,102.539062,-47.790527,87.463379
1557,-1.063965,0.275879,0.508301,82.580566,-46.081543,99.670410
1558,-1.075684,0.274902,0.489258,70.861816,-49.804688,110.717773
1559,-1.082031,0.231445,0.444824,67.321777,-54.077148,121.887207
1560,-1.083496,0.083008,0.385742,64.697266,-56.823730,136.108398
1561,-1.116699,0.023438,0.367188,52.856445,-48.889160,136.047363
1562,-1.137695,-0.014160,0.344727,37.231445,-37.353516,132.995605
1563,-1.176270,-0.038086,0.373535,15.319824,-13.732910,125.854492
1564,-1.177734,-0.048828,0.428711,4.333496,-5.065918,122.497559
1565,-1.185547,-0.051270,0.467773,-7.812500,2.075195,120.361328
1566,-1.237793,-0.094238,0.515137,-21.301270,8.178711,117.248535
1567,-1.259277,-0.217773,0.481934,-56.335449,20.996094,97.778320
1568,-1.263184,-0.276855,0.463867,-66.772461,29.724121,80.505371
1569,-1.302246,-0.281250,0.544922,-70.007324,44.982910,38.940430
1570,-1.315918,-0.218750,0.593750,-65.185547,49.560547,17.395020
1571,-1.332031,-0.129883,0.652344,-59.997559,52.185059,-1.403809
1572,-1.333984,-0.051270,0.715820,-56.762695,51.025391,-16.662598
1573,-1.329590,0.086426,0.760742,-55.847168,48.645020,-36.193848
1574,-1.301270,0.159668,0.803711,-54.931641,42.297363,-39.855957
1575,-1.236328,0.211914,0.802246,-55.541992,31.860352,-38.452148
1576,-1.148926,0.209473,0.649902,-68.420410,15.991211,-33.264160
1577,-1.143066,0.163574,0.528809,-71.228027,17.700195,-34.667969
1578,-1.138672,0.110840,0.476074,-71.289062,25.817871,-41.992188
1579,-1.123535,0.096680,0.498535,-85.937500,53.161621,-67.260742
1580,-1.141602,0.135254,0.523926,-96.130371,69.458008,-80.261230
1581,-1.177734,0.166992,0.542969,-104.248047,85.998535,-92.285156
1582,-1.239258,0.208984,0.576172,-108.520508,103.454590,-103.942871
1583,-1.222656,0.333496,0.767090,-107.482910,120.666504,-117.126465
1584,-1.180664,0.333984,0.792969,-96.862793,117.858887,-117.309570
1585,-1.108887,0.329590,0.808105,-83.374023,113.586426,-118.408203
1586,-0.991699,0.379395,0.953613,-59.020996,100.891113,-114.624023
1587,-0.964355,0.342773,1.033203,-55.175781,85.632324,-112.304688
1588,-0.912109,0.300781,1.041504,-57.617188,69.274902,-112.426758
1589,-0.883301,0.236328,1.007812,-68.359375,41.198730,-119.812012
1590,-0.885742,0.236816,0.945801,-73.730469,27.709961,-125.976562
1591,-0.919434,0.248535,0.736328,-68.115234,11.474609,-139.648438
1592,-0.916992,0.286621,0.717773,-61.645508,6.286621,-146.301270
1593,-0.914551,0.310059,0.675293,-60.363770,1.281738,-150.573730
1594,-0.909180,0.345703,0.624023,-56.335449,-1.342773,-153.198242
1595,-0.937988,0.429199,0.521484,-43.151855,-4.089355,-155.395508
1596,-0.966797,0.508789,0.470703,-37.048340,0.976562,-154.663086
1597,-0.983887,0.608398,0.444824,-26.733398,4.089355,-148.986816
1598,-0.975586,0.653809,0.409668,-14.404297,4.760742,-139.465332
1599,-0.854492,0.596191,0.395508,0.610352,12.268066,-125.549316
1600,-0.804688,0.580566,0.431152,-7.507324,20.751953,-120.727539
1601,-0.777344,0.606934,0.500488,-37.719727,38.452148,-113.708496
1602,-0.766113,0.647461,0.538574,-55.114746,46.630859,-109.924316
1603,-0.749023,0.697754,0.585938,-75.073242,53.344727,-102.722168
1604,-0.753906,0.746582,0.626465,-104.614258,49.316406,-79.772949
1605,-0.719238,0.726562,0.562500,-108.154297,45.654297,-64.025879
1606,-0.690430,0.681152,0.471680,-99.548340,43.579102,-48.400879
1607,-0.703613,0.619629,0.438965,-70.495605,39.550781,-28.686523
1608,-0.718750,0.613770,0.424316,-58.166504,36.315918,-22.521973
1609,-0.750977,0.639648,0.427734,-45.166016,31.555176,-17.333984
1610,-0.835938,0.697266,0.420410,-24.658203,16.174316,-4.943848
1611,-0.882324,0.735352,0.385742,-18.432617,10.437012,2.014160
1612,-0.924805,0.774414,0.362305,-13.244629,5.981445,10.375977
1613,-0.938477,0.784180,0.293457,-2.929688,3.356934,33.691406
1614,-0.916016,0.775879,0.310547,2.502441,3.173828,52.001953
1615,-0.822266,0.620605,0.300781,6.713867,-4.699707,90.576172
1616,-0.821777,0.543945,0.280762,14.099121,-4.943848,106.628418
1617,-0.888184,0.489258,0.383301,16.723633,-5.920410,119.262695
1618,-0.938965,0.421875,0.436523,11.718750,-12.634277,129.699707
1619,-1.010254,0.191895,0.360352,10.864258,-26.489258,137.817383
1620,-1.057617,0.121582,0.334473,23.620605,-32.592773,133.972168
1621,-1.091797,0.107910,0.337891,37.475586,-39.184570,127.258301
1622,-1.121582,0.146973,0.317383,53.649902,-48.828125,116.394043
1623,-1.113770,0.176270,0.313477,57.128906,-50.476074,113.098145
1624,-1.041504,0.202637,0.288574,53.833008,-53.649902,116.149902
1625,-1.013184,0.166992,0.264648,49.316406,-52.978516,119.750977
1626,-0.965820,0.100098,0.229492,47.851562,-52.856445,122.131348
1627,-0.920898,0.032227,0.197754,50.537109,-51.147461,121.826172
1628,-0.831055,-0.047363,0.205566,52.673340,-43.518066,112.792969
1629,-0.822266,-0.069336,0.268066,47.241211,-37.170410,106.384277
1630,-0.865234,-0.069824,0.396973,32.043457,-35.766602,98.510742
1631,-0.951172,-0.045410,0.437500,-2.990723,-53.833008,82.031250
1632,-0.962402,0.029785,0.241211,3.417969,-66.589355,78.674316
1633,-0.940918,0.019531,-0.094238,91.247559,-62.316895,80.322266
1634,-0.958496,0.060059,0.081543,121.459961,-50.292969,81.176758
1635,-0.959473,0.102051,0.217285,115.295410,-39.306641,83.679199
1636,-0.967773,0.121094,0.269043,88.806152,-27.587891,88.928223
1637,-0.966309,0.069336,0.293945,27.465820,-8.056641,99.304199
1638,-1.002930,0.029297,0.268555,6.286621,-0.854492,104.248047
1639,-1.071777,-0.039551,0.263672,-17.211914,9.521484,108.276367
1640,-1.121094,-0.070801,0.278320,-23.498535,14.221191,108.276367
1641,-1.161133,-0.081543,0.277344,-27.221680,19.226074,107.055664
1642,-1.190918,-0.060059,0.257812,-27.160645,24.169922,106.018066
1643,-1.237305,-0.141602,0.246094,-6.958008,31.799316,104.797363
1644,-1.242676,-0.211914,0.318359,-3.601074,34.423828,96.313477
1645,-1.225098,-0.240723,0.382812,-12.756348,36.132812,83.923340
1646,-1.259277,-0.208496,0.402832,-31.494141,49.072266,49.621582
1647,-1.272461,-0.146973,0.489258,-31.616211,50.964355,33.203125
1648,-1.378418,-0.041504,0.579590,-23.437500,56.884766,1.892090
1649,-1.463867,-0.022949,0.781738,-25.634766,60.363770,-18.310547
1650,-1.480957,0.074707,0.875488,-28.381348,48.889160,-36.621094
1651,-1.485840,0.196777,0.822266,-15.319824,30.334473,-42.480469
1652,-1.507324,0.252930,0.748047,43.273926,3.295898,-39.001465
1653,-1.461914,0.223145,0.760742,59.875488,-0.366211,-37.536621
1654,-1.394531,0.216797,0.752441,64.941406,-3.417969,-45.349121
1655,-1.089844,0.115723,0.816406,38.696289,-17.700195,-33.996582
1656,-0.989258,0.046875,0.696777,23.132324,-22.277832,-34.912109
1657,-0.974609,-0.011719,0.639648,9.704590,-19.470215,-41.809082
1658,-0.979004,0.010254,0.612305,-5.493164,-11.657715,-54.504395
1659,-0.946777,0.143066,0.671387,-44.372559,2.929688,-75.805664
1660,-0.924316,0.190918,0.684570,-63.964844,9.033203,-84.289551
1661,-0.906250,0.257812,0.730469,-83.435059,16.113281,-90.881348
1662,-0.826172,0.428711,0.738281,-115.234375,28.442383,-90.454102
1663,-0.786621,0.484375,0.771484,-123.840332,33.325195,-82.824707
1664,-0.740723,0.496094,0.780762,-129.699707,31.799316,-73.364258
1665,-0.636230,0.399414,0.730957,-127.502441,33.142090,-52.368164
1666,-0.638184,0.305664,0.686523,-119.201660,35.766602,-45.410156
1667,-0.660645,0.244629,0.742188,-99.304199,32.470703,-40.039062
1668,-0.680176,0.151855,0.801270,-86.669922,21.423340,-40.710449
1669,-0.650879,0.061035,0.750488,-101.196289,6.835938,-58.837891
1670,-0.640137,0.084473,0.670410,-104.858398,3.417969,-70.068359
1671,-0.678711,0.191895,0.636230,-98.449707,1.464844,-87.097168
1672,-0.715820,0.252441,0.646484,-95.886230,0.244141,-92.773438
1673,-0.729980,0.331055,0.664062,-93.872070,-2.441406,-95.031738
1674,-0.746582,0.396973,0.678223,-93.688965,-7.507324,-92.529297
1675,-0.767090,0.453613,0.595703,-89.599609,-13.671875,-79.589844
1676,-0.788086,0.458008,0.582031,-87.219238,-11.718750,-73.364258
1677,-0.816895,0.479980,0.597656,-83.068848,-9.826660,-65.795898
1678,-0.865234,0.475586,0.581543,-87.707520,-18.859863,-47.668457
1679,-0.862305,0.451660,0.418945,-89.294434,-15.441895,-38.696289
1680,-0.916992,0.456055,0.320801,-83.618164,14.282227,-29.541016
1681,-0.916504,0.470215,0.367676,-83.740234,26.306152,-23.986816
1682,-0.911133,0.474609,0.415527,-90.332031,36.743164,-17.639160
1683,-0.888184,0.468750,0.447754,-100.524902,44.799805,-10.375977
1684,-0.870117,0.416504,0.471191,-115.539551,57.556152,1.220703
1685,-0.893555,0.405762,0.485352,-118.652344,58.715820,5.615234
1686,-0.949219,0.408203,0.487305,-117.309570,56.640625,7.690430
1687,-1.082520,0.464844,0.513672,-104.919434,46.508789,7.934570
1688,-1.131836,0.450195,0.467285,-90.637207,40.161133,7.629395
1689,-1.157227,0.524902,0.352051,-63.232422,36.193848,0.427246
1690,-1.067383,0.641113,0.422852,-9.399414,26.733398,13.549805
1691,-1.014160,0.635742,0.414551,8.178711,21.667480,21.911621
1692,-0.939941,0.631836,0.446289,21.911621,17.700195,30.151367
1693,-0.869141,0.619141,0.478027,28.869629,12.207031,42.419434
1694,-0.845703,0.467285,0.449219,21.789551,2.380371,71.533203
1695,-0.864258,0.373535,0.414551,7.324219,3.112793,78.125000
1696,-0.879395,0.294434,0.395508,-30.944824,7.324219,83.923340
1697,-0.895996,0.277344,0.361328,-41.259766,6.103516,88.256836
1698,-0.920898,0.246582,0.335938,-45.227051,6.103516,92.041016
1699,-0.949707,0.226074,0.330078,-47.302246,7.263184,94.116211
1700,-0.945312,0.180664,0.334473,-48.339844,2.258301,96.069336
1701,-0.927734,0.167969,0.320312,-47.058105,-0.610352,95.764160
1702,-0.903320,0.114258,0.266113,-35.339355,-8.789062,96.313477
1703,-0.868652,0.069336,0.229004,-28.320312,-12.207031,93.933105
1704,-0.822754,0.049316,0.193359,-24.719238,-12.207031,89.782715
1705,-0.750977,0.021484,0.184082,-26.916504,-8.728027,78.002930
1706,-0.712402,0.002930,0.151367,-27.099609,-7.690430,70.983887
1707,-0.686035,0.012207,0.125000,-17.883301,-6.530762,65.734863
1708,-0.655762,0.057617,0.230469,-1.525879,-8.117676,59.143066
1709,-0.653320,0.053223,0.254883,-4.150391,-10.925293,57.983398
1710,-0.663086,0.068848,0.216309,-5.920410,-12.939453,57.678223
1711,-0.726562,0.118652,0.183594,1.220703,-6.652832,57.983398
1712,-0.772461,0.159180,0.214355,6.896973,-2.380371,60.180664
1713,-0.801758,0.203125,0.254395,11.291504,-0.793457,64.575195
1714,-0.827637,0.250977,0.287598,17.456055,1.037598,81.909180
1715,-0.853516,0.217773,0.323730,11.230469,3.295898,91.186523
1716,-0.887695,0.171387,0.336426,-2.685547,6.347656,97.656250
1717,-0.909668,0.133789,0.347656,-19.409180,9.277344,101.867676
1718,-0.958496,0.085449,0.309082,-41.748047,15.197754,107.604980
1719,-1.005859,0.071289,0.322266,-46.386719,19.226074,108.764648
1720,-1.091797,0.042969,0.383301,-58.044434,24.963379,107.666016
1721,-1.130859,0.004883,0.402344,-64.270020,27.404785,105.102539
1722,-1.156250,-0.044922,0.406250,-68.542480,29.602051,100.952148
1723,-1.166992,-0.106445,0.453613,-75.622559,31.555176,88.012695
1724,-1.185059,-0.143066,0.469238,-81.604004,32.592773,79.162598
1725,-1.210449,-0.175293,0.483398,-87.158203,35.461426,67.871094
1726,-1.235352,-0.208496,0.560059,-76.782227,29.724121,43.151855
1727,-1.206055,-0.194336,0.553223,-61.401367,23.437500,29.602051
1728,-1.200684,-0.174316,0.595703,-44.982910,18.493652,14.648438
1729,-1.231445,-0.138184,0.658203,-37.658691,16.662598,-3.723145
1730,-1.300293,0.025391,0.842285,-49.621582,7.812500,-35.095215
1731,-1.331543,0.102539,0.845215,-58.837891,-2.197266,-45.166016
1732,-1.332031,0.177246,0.752930,-59.082031,-13.732910,-50.170898
1733,-1.294922,0.301758,0.655762,-44.860840,-35.156250,-52.185059
1734,-1.208984,0.328125,0.577637,-41.687012,-42.663574,-47.180176
1735,-1.108887,0.292969,0.477051,-39.733887,-45.288086,-40.954590
1736,-1.021973,0.168945,0.378418,-39.489746,-31.433105,-37.536621
1737,-1.022949,0.117676,0.396484,-46.447754,-20.385742,-42.785645
1738,-1.020996,0.104980,0.395508,-56.213379,-8.422852,-51.574707
1739,-1.010254,0.200195,0.464844,-76.843262,18.371582,-67.382812
1740,-0.995117,0.265137,0.509277,-85.205078,27.221680,-70.434570
1741,-0.957520,0.301270,0.528320,-90.576172,33.325195,-70.251465
1742,-0.886719,0.355469,0.646484,-96.435547,42.480469,-69.213867
1743,-0.806152,0.411621,0.638672,-102.478027,41.870117,-65.246582
1744,-0.742188,0.432129,0.631836,-103.515625,42.358398,-54.382324
1745,-0.729004,0.354980,0.668945,-109.313965,41.748047,-40.039062
1746,-0.763672,0.325195,0.716309,-116.699219,40.405273,-36.682129
1747,-0.766602,0.315918,0.730469,-125.000000,34.851074,-33.508301
1748,-0.763184,0.232910,0.601074,-113.464355,22.338867,-23.742676
1749,-0.747070,0.175781,0.568359,-101.501465,15.808105,-24.169922
1750,-0.726074,0.137695,0.530273,-93.322754,12.695312,-27.221680
1751,-0.712402,0.107910,0.492676,-87.707520,11.169434,-39.733887
1752,-0.733887,0.105469,0.438965,-82.580566,12.451172,-47.729492
1753,-0.807617,0.125000,0.471680,-74.340820,16.784668,-56.457520
1754,-0.803711,0.246582,0.510254,-73.242188,12.634277,-66.284180
1755,-0.812500,0.283691,0.454590,-68.481445,14.038086,-66.528320
1756,-0.810547,0.335938,0.454102,-61.096191,16.357422,-66.955566
1757,-0.831055,0.414062,0.453613,-50.354004,20.751953,-59.570312
1758,-0.874512,0.438965,0.449219,-49.804688,27.526855,-57.373047
1759,-0.902832,0.499512,0.494629,-61.828613,39.428711,-46.691895
1760,-0.916504,0.594238,0.569824,-70.129395,39.855957,-35.522461
1761,-0.901367,0.625488,0.604980,-71.166992,36.010742,-19.958496
1762,-0.876465,0.605957,0.596680,-68.542480,24.902344,-5.310059
1763,-0.829590,0.537598,0.458984,-52.856445,2.990723,10.559082
1764,-0.795410,0.513184,0.338379,-42.419434,-5.004883,11.474609
1765,-0.798340,0.511719,0.250000,-28.808594,-5.737305,11.047363
1766,-0.914062,0.587891,0.212891,-0.793457,2.258301,10.498047
1767,-0.997559,0.622559,0.268555,10.864258,7.263184,15.380859
1768,-1.152344,0.615234,0.365723,12.573242,20.507812,26.916504
1769,-1.136230,0.604492,0.392090,12.023926,25.695801,33.203125
1770,-1.084473,0.587402,0.400879,18.676758,29.663086,42.114258
1771,-1.039551,0.540527,0.467773,25.146484,31.433105,50.170898
1772,-0.927246,0.498047,0.595703,21.606445,26.855469,66.894531
1773,-0.887207,0.446289,0.619629,13.427734,20.446777,77.697754
1774,-0.906738,0.311035,0.592285,0.671387,10.803223,95.642090
1775,-0.938477,0.253418,0.612793,-6.103516,3.906250,100.097656
1776,-0.930176,0.213867,0.580078,-16.296387,-4.943848,103.454590
1777,-0.928223,0.175293,0.512695,-25.939941,-11.779785,105.895996
1778,-0.967285,0.099121,0.390625,-44.006348,-18.981934,102.905273
1779,-0.967773,0.096680,0.317383,-49.011230,-20.751953,98.937988
1780,-0.919922,0.095703,0.185547,-38.513184,-22.888184,93.261719
1781,-0.888184,0.081055,0.163086,-28.991699,-23.071289,90.637207
1782,-0.826172,0.000000,0.196289,-20.324707,-26.306152,83.190918
1783,-0.798340,-0.031250,0.163574,-23.376465,-28.991699,77.514648
1784,-0.766602,-0.050781,0.102051,-23.010254,-30.090332,70.007324
1785,-0.734863,-0.061523,0.057617,-17.639160,-29.296875,60.913086
1786,-0.682617,-0.038086,0.026367,8.728027,-25.390625,44.677734
1787,-0.665527,-0.010254,0.034180,21.057129,-22.949219,38.085938
1788,-0.664062,0.042480,0.082520,28.259277,-19.104004,34.057617
1789,-0.736328,0.113770,0.179688,26.123047,-16.845703,33.081055
1790,-0.783691,0.124512,0.189453,19.775391,-16.601562,33.996582
1791,-0.800293,0.148926,0.128906,17.150879,-15.502930,36.132812
1792,-0.804199,0.138672,0.126953,25.146484,-12.084961,38.269043
1793,-0.808594,0.121094,0.177246,34.667969,-9.643555,39.794922
1794,-0.823242,0.123535,0.244629,41.748047,-8.911133,41.198730
1795,-0.835449,0.154297,0.361816,42.175293,-10.070801,48.461914
1796,-0.842773,0.154297,0.405762,34.729004,-12.817383,53.527832
1797,-0.872070,0.157227,0.423340,20.629883,-13.916016,59.020996
1798,-0.960449,0.122070,0.378906,-6.530762,-16.601562,68.664551
1799,-1.004395,0.093750,0.329102,-12.878418,-13.916016,69.824219
1800,-1.053223,0.074707,0.316406,-13.793945,-10.131836,68.481445
1801,-1.092285,0.041016,0.365723,-10.192871,-3.967285,63.598633
1802,-1.129395,0.033203,0.399414,-10.070801,-1.525879,60.546875
1803,-1.170410,0.031738,0.424316,-9.948730,0.854492,57.067871
1804,-1.275391,0.012695,0.520996,-14.465332,6.347656,47.485352
1805,-1.377441,0.003418,0.554199,-22.033691,13.732910,38.635254
1806,-1.483887,0.074219,0.749023,-43.212891,25.329590,16.845703
1807,-1.512695,0.113770,0.808105,-50.781250,23.071289,11.047363
1808,-1.535156,0.133301,0.834961,-56.030273,17.822266,7.446289
1809,-1.528320,0.136230,0.839844,-60.363770,12.023926,5.065918
1810,-1.477051,0.110840,0.828613,-64.025879,4.089355,3.845215
1811,-1.261230,-0.048828,0.631836,-64.086914,-12.084961,-3.906250
1812,-1.181641,-0.122559,0.532227,-62.011719,-13.183594,-13.183594
1813,-1.169922,-0.168945,0.464355,-65.002441,-6.042480,-28.442383
1814,-1.198730,-0.082520,0.482422,-81.115723,17.761230,-67.260742
1815,-1.213379,0.032227,0.544434,-89.172363,27.038574,-82.336426
1816,-1.195801,0.216797,0.628418,-95.703125,33.447266,-98.632812
1817,-1.158203,0.287598,0.662598,-96.435547,36.010742,-99.975586
1818,-1.133301,0.317871,0.708496,-98.144531,37.353516,-99.365234
1819,-1.087891,0.322266,0.709473,-99.426270,34.729004,-99.487305
1820,-0.967285,0.333008,0.669434,-84.045410,34.240723,-92.590332
1821,-0.930664,0.280762,0.699219,-82.946777,31.860352,-91.003418
1822,-0.874023,0.211914,0.679688,-80.505371,26.306152,-93.872070
1823,-0.850586,0.207520,0.673828,-80.322266,23.620605,-97.534180
1824,-0.841309,0.206543,0.671875,-84.228516,21.911621,-101.989746
1825,-0.822754,0.207520,0.652344,-90.820312,20.568848,-107.177734
1826,-0.774902,0.266113,0.567871,-92.407227,16.540527,-114.746094
1827,-0.752930,0.308105,0.519531,-86.730957,12.817383,-115.661621
1828,-0.718750,0.336426,0.457520,-77.453613,9.277344,-114.929199
1829,-0.690918,0.381348,0.387207,-51.513672,2.502441,-107.971191
1830,-0.691406,0.391113,0.356934,-39.733887,-1.037598,-103.271484
1831,-0.687988,0.397949,0.312012,-28.625488,-2.441406,-98.266602
1832,-0.666992,0.398438,0.322754,-18.676758,2.563477,-91.003418
1833,-0.651367,0.405762,0.333496,-18.432617,5.615234,-87.036133
1834,-0.631836,0.398926,0.345703,-17.456055,8.117676,-82.702637
1835,-0.629395,0.398438,0.410156,-4.455566,7.141113,-75.683594
1836,-0.637695,0.422363,0.457520,6.591797,0.610352,-69.274902
1837,-0.650391,0.482910,0.455078,13.244629,-7.690430,-60.791016
1838,-0.645020,0.548828,0.440430,-15.502930,-5.676270,-32.104492
1839,-0.661133,0.539062,0.395996,-44.372559,2.014160,-17.456055
1840,-0.691895,0.512695,0.303711,-62.561035,12.390137,-3.967285
1841,-0.715820,0.475586,0.259277,-61.279297,21.118164,8.972168
1842,-0.797852,0.330566,0.359863,-29.785156,23.498535,27.221680
1843,-0.874023,0.265625,0.421387,-11.779785,13.610840,33.203125
1844,-0.929688,0.209473,0.419434,5.676270,-1.281738,37.597656
1845,-1.004395,0.095703,0.190430,30.761719,-15.747070,33.813477
1846,-1.017090,0.099121,0.121582,39.184570,-7.934570,24.902344
1847,-1.062988,0.242676,0.138672,51.269531,12.817383,12.756348
1848,-1.123535,0.319824,0.174805,58.532715,23.620605,10.864258
1849,-1.198242,0.396973,0.234375,69.458008,34.057617,10.559082
1850,-1.243164,0.536621,0.439453,93.444824,43.762207,17.150879
1851,-1.216797,0.561523,0.541992,101.745605,44.311523,28.198242
1852,-1.154297,0.539062,0.638672,101.501465,41.381836,41.198730
1853,-1.020020,0.442383,0.700195,80.993652,29.602051,72.631836
1854,-1.019043,0.338867,0.661621,67.199707,22.888184,86.730957
1855,-1.052246,0.176270,0.554688,49.072266,17.333984,97.900391
1856,-1.064453,0.129883,0.549805,40.222168,16.113281,98.388672
1857,-1.081543,0.087891,0.548340,31.799316,13.977051,97.839355
1858,-1.100586,0.053711,0.547852,23.864746,11.291504,95.458984
1859,-1.111816,0.034668,0.496582,12.329102,5.554199,87.402344
1860,-1.110352,0.042480,0.479492,11.779785,3.051758,82.824707
1861,-1.086426,0.048828,0.466309,19.409180,-4.821777,76.477051
1862,-1.055176,-0.001465,0.463867,25.512695,-9.765625,73.730469
1863,-0.997070,-0.044922,0.424805,29.052734,-13.244629,68.603516
1864,-0.932129,-0.071777,0.399414,30.578613,-14.343262,60.852051
1865,-0.797852,-0.098145,0.399414,26.672363,-14.587402,42.724609
1866,-0.769043,-0.079590,0.388672,18.615723,-15.014648,33.752441
1867,-0.771484,-0.035645,0.377930,12.817383,-15.747070,26.794434
1868,-0.758301,0.025879,0.325684,20.324707,-22.094727,22.216797
1869,-0.733398,0.019531,0.309082,29.479980,-26.611328,22.094727
1870,-0.709473,0.024902,0.296387,35.766602,-29.357910,21.911621
