order,ax,ay,az,gx,gy,gz
0,0.077148,-0.479980,1.059570,-13.549805,27.160645,-18.798828
1,0.076660,-0.426270,1.027832,-15.014648,27.404785,-19.348145
2,0.087891,-0.333496,1.043945,0.305176,22.094727,-15.441895
3,0.082031,-0.311523,1.106445,8.972168,15.197754,-10.620117
4,0.057129,-0.326660,1.159180,13.916016,6.713867,-5.249023
5,0.026367,-0.401367,1.077637,21.179199,-9.826660,3.784180
6,0.034668,-0.409668,1.047852,28.503418,-12.268066,3.173828
7,0.033203,-0.410645,1.029785,30.151367,-11.718750,2.441406
8,0.041992,-0.408691,0.987305,29.357910,-6.103516,-0.549316
9,0.054688,-0.354004,1.009766,31.005859,29.846191,-7.934570
10,0.055664,-0.257812,1.129883,26.977539,50.781250,-10.437012
11,0.077148,-0.178223,1.227539,18.493652,65.246582,-10.375977
12,-0.021973,-0.175781,1.460449,0.976562,53.344727,-11.718750
13,-0.058594,-0.190918,1.394531,-14.648438,34.729004,-13.793945
14,-0.132812,-0.208984,1.195801,-30.090332,21.484375,-14.770508
15,-0.223145,-0.367188,0.782227,-26.428223,14.587402,-19.104004
16,-0.180664,-0.382812,0.715332,-9.460449,8.361816,-24.353027
17,-0.151367,-0.359375,0.643066,4.943848,0.976562,-28.076172
18,-0.123047,-0.267578,0.660156,39.978027,-2.441406,-34.729004
19,-0.057617,-0.203125,0.736816,41.870117,0.122070,-33.630371
20,-0.024414,-0.173828,0.815430,39.550781,6.469727,-25.939941
21,-0.032227,-0.180176,0.954102,28.930664,11.718750,-17.211914
22,-0.048340,-0.180664,1.075684,-12.145996,5.432129,-8.605957
23,-0.047852,-0.143555,1.076172,-42.480469,-3.356934,-7.080078
24,-0.081055,-0.166992,0.934570,-66.650391,-13.488770,-5.798340
25,-0.033691,-0.301270,0.595703,-61.523438,-21.972656,-9.277344
26,-0.044434,-0.343262,0.531250,-37.963867,-17.822266,-12.817383
27,-0.076172,-0.338867,0.665527,-23.559570,-13.000488,-21.667480
28,-0.151367,-0.395020,0.758301,-24.475098,-12.878418,-36.193848
29,-0.207520,-0.516113,0.779785,-50.537109,-4.760742,-64.758301
30,-0.240723,-0.414551,0.903809,-80.505371,16.235352,-102.416992
31,-0.180664,-0.318848,0.821777,-110.229492,28.625488,-130.371094
32,-0.270508,-0.341797,0.750977,-138.122559,50.354004,-162.963867
33,-0.324707,-0.382324,0.911133,-173.706055,79.406738,-233.154297
34,-0.041016,-0.241699,0.931152,-179.565430,70.983887,-237.792969
35,0.214844,-0.294434,0.845215,-172.973633,60.241699,-185.852051
36,0.337402,-0.528320,0.555664,-88.195801,33.447266,-92.041016
37,0.375000,-0.684082,0.481934,-25.024414,18.920898,-56.701660
38,0.289551,-0.795898,0.494141,20.996094,7.751465,-45.593262
39,0.238281,-0.677734,0.679688,22.583008,-36.071777,-37.109375
40,0.118652,-0.764160,0.541504,28.869629,-52.612305,-36.682129
41,0.006348,-0.777344,0.538574,42.724609,-65.124512,-49.926758
42,0.335938,-0.262207,0.728027,24.658203,-52.246094,-75.256348
43,0.326172,-0.447266,0.700195,21.057129,-5.004883,-36.865234
44,-0.033691,-0.781738,1.363281,45.654297,-0.793457,-27.648926
45,-0.045898,-0.692383,1.248047,32.958984,-17.150879,-36.804199
46,0.132812,-0.622559,0.960938,23.010254,-10.253906,-31.311035
47,0.091309,-0.790527,0.994141,69.641113,-59.326172,-31.066895
48,0.170410,-0.747559,1.262695,52.734375,-67.260742,-43.090820
49,0.296387,-0.756348,1.372559,24.719238,-78.613281,-46.325684
50,0.353027,-0.782715,1.123047,-0.915527,-82.092285,-56.030273
51,0.382324,-0.656738,1.100586,11.901855,-78.613281,-57.250977
52,0.402344,-0.530273,1.158691,22.277832,-78.796387,-52.551270
53,0.398438,-0.457031,1.218262,26.000977,-88.195801,-45.288086
54,0.245117,-0.423340,1.247070,19.226074,-119.445801,-44.982910
55,0.233887,-0.278809,1.332031,9.460449,-133.728027,-47.546387
56,0.369141,-0.175293,1.266602,-33.447266,-140.136719,-28.320312
57,0.447754,-0.138184,1.052246,-66.345215,-123.291016,-24.291992
58,0.558105,-0.110840,0.850586,-85.815430,-100.524902,-26.428223
59,0.723633,-0.030273,0.535645,-95.886230,-54.565430,-15.563965
60,0.647461,-0.069336,0.404297,-96.313477,-33.752441,5.249023
61,0.531250,-0.232422,0.392578,-90.393066,-12.023926,21.423340
62,0.373047,-0.486816,0.610840,-106.750488,13.122559,15.747070
63,0.310059,-0.607910,0.716797,-156.677246,63.720703,-47.058105
64,0.377441,-0.502441,0.685059,-141.296387,66.467285,-62.194824
65,0.418457,-0.383301,0.589844,-111.450195,60.180664,-57.006836
66,0.378906,-0.289062,0.523926,-45.532227,56.335449,-2.685547
67,0.339844,-0.448730,0.699707,8.605957,42.541504,23.254395
68,0.223633,-0.635254,0.738281,28.198242,24.719238,27.404785
69,0.253418,-0.540527,0.518066,54.138184,10.681152,-13.610840
70,0.387207,-0.354980,0.483398,54.504395,20.202637,-20.996094
71,0.448242,-0.162598,0.508301,6.652832,48.461914,-22.705078
72,0.325684,-0.031738,0.443848,-64.819336,89.477539,-11.779785
73,0.273926,-0.062988,0.416504,-129.211426,144.042969,31.250000
74,0.305664,-0.261230,0.485840,-126.525879,137.268066,45.776367
75,0.254395,-0.491211,0.535156,-114.379883,118.591309,54.626465
76,0.285156,-0.690918,0.473145,-50.109863,110.412598,81.787109
77,0.093750,-0.860840,0.719727,-12.939453,117.065430,93.627930
78,-0.368164,-1.187988,1.104492,32.836914,102.600098,83.984375
79,-0.583984,-1.305176,1.263184,21.362305,89.660645,45.288086
80,0.036621,-1.215332,1.114746,-92.956543,52.734375,-57.495117
81,0.377441,-0.972656,0.669434,-107.849121,41.870117,-87.280273
82,0.521973,-0.814941,0.394531,-95.642090,54.504395,-89.782715
83,0.104004,-0.750000,0.438477,-119.689941,138.183594,-62.927246
84,0.069824,-1.066895,-0.165039,-112.915039,174.865723,-67.810059
85,-0.167969,-1.125977,-0.069336,-9.887695,264.343262,-86.669922
86,-0.478027,-1.166992,-0.019531,99.182129,470.031738,-157.958984
87,-0.509277,-1.099609,0.497070,70.251465,547.546387,-160.278320
88,-0.502441,-0.801270,1.076172,-31.127930,578.735352,-117.980957
89,-0.431641,-0.671875,1.676270,-205.017090,348.999023,-2.380371
90,-0.287109,-0.383301,1.920410,-210.327148,215.942383,15.380859
91,-0.186523,-0.422363,1.478516,-219.421387,77.392578,38.635254
92,-0.201172,-0.734375,0.826172,-179.382324,-15.563965,43.518066
93,-0.386719,-1.059082,0.762207,-108.642578,-28.869629,2.502441
94,-0.346680,-0.871582,0.803711,-118.774414,-17.150879,-15.319824
95,-0.163574,-0.589355,0.588379,-137.451172,5.737305,0.549316
96,0.014160,-0.365234,0.498047,-157.531738,38.757324,37.536621
97,0.012695,-0.218750,0.399902,-219.726562,117.980957,126.831055
98,-0.128906,-0.252930,0.434082,-269.653320,142.272949,173.828125
99,-0.610352,-0.601074,-0.253418,-224.914551,150.146484,188.354492
100,-0.685059,-0.530762,-0.014648,-165.344238,146.606445,196.960449
101,-1.234863,-0.363281,0.463379,-165.405273,38.208008,251.403809
102,-1.165527,-0.184570,0.377930,-185.119629,-20.874023,269.104004
103,-1.062012,-0.304199,0.360840,-206.237793,-69.519043,270.874023
104,-1.094727,-1.025391,0.056152,-218.200684,-147.155762,197.509766
105,-0.932129,-1.177734,-0.084961,-151.367188,-178.833008,143.798828
106,-0.666504,-0.901367,0.016113,-20.385742,-233.154297,151.062012
107,-0.494141,-0.312988,0.228027,202.941895,-321.960449,310.363770
108,-0.466309,0.207031,1.202637,161.437988,-322.082520,383.361816
109,-1.165527,-0.580566,1.312012,19.226074,-301.208496,387.390137
110,-0.933594,-0.668945,0.952148,-130.981445,-248.474121,320.861816
111,-0.580078,-0.761230,0.502930,-134.155273,-189.086914,262.512207
112,-0.367676,-0.342285,0.692383,-74.279785,-176.940918,270.690918
113,-0.221191,-0.437988,0.415039,-23.925781,-181.518555,328.125000
114,-0.219727,-0.710449,0.268066,7.934570,-158.935547,358.886719
115,-0.320801,-1.390137,0.152344,-16.357422,-76.232910,299.926758
116,-0.282715,-1.743652,0.380859,-62.561035,-58.532715,237.731934
117,-0.374512,-2.028809,0.288086,-90.637207,-53.649902,159.301758
118,-0.485352,-2.156250,0.112793,-85.266113,-36.743164,75.561523
119,-0.634277,-2.009277,-0.325684,-29.113770,15.502930,-58.166504
120,-0.620605,-1.669922,-0.611816,-7.507324,47.424316,-107.788086
121,-0.681152,-1.061523,-0.655762,17.150879,104.431152,-132.751465
122,-1.208008,-0.318359,-0.239258,6.286621,84.350586,-136.291504
123,-1.135742,-0.089355,-0.065430,-25.634766,52.612305,-119.079590
124,-1.092285,-0.231445,-0.073242,-50.231934,11.840820,-108.276367
125,-0.994629,-0.375977,-0.027344,-71.716309,-22.033691,-117.614746
126,-0.742676,-0.740723,-0.095703,-113.281250,-9.887695,-167.785645
127,-0.674316,-0.886719,0.021484,-102.172852,29.968262,-190.063477
128,-1.000977,-0.923340,0.161621,-83.740234,52.246094,-192.077637
129,-0.719727,-1.294922,0.076172,34.301758,89.233398,-176.269531
130,-0.454590,-1.071777,0.015625,104.309082,116.027832,-175.109863
131,-0.867188,-0.942383,0.281250,146.545410,127.380371,-107.177734
132,-1.224121,-0.636230,0.931152,124.267578,85.876465,-135.925293
133,-0.924316,-0.597168,0.928711,65.917969,54.382324,-164.489746
134,-0.532715,-0.638672,1.015625,-2.746582,49.194336,-252.746582
135,-0.791504,-0.492188,0.914062,-64.331055,81.726074,-265.686035
136,-0.780762,-0.596191,0.841309,-94.726562,71.533203,-206.420898
137,-0.875000,-1.005371,0.767090,-50.476074,30.456543,-152.343750
138,-1.041016,-1.023438,0.504395,74.035645,13.305664,-48.217773
139,-0.972656,-0.979492,0.626953,115.173340,25.146484,-27.160645
140,-0.985840,-0.988281,0.919922,122.924805,12.634277,-33.264160
141,-0.686035,-0.801758,-0.265625,53.039551,17.517090,-127.197266
142,-0.577148,-0.644531,0.054199,54.321289,68.664551,-152.526855
143,-0.494141,-0.527832,0.408691,40.954590,82.336426,-151.184082
144,-0.320312,-0.933594,-0.109375,8.666992,105.529785,-149.536133
145,-0.275391,-1.087891,0.078613,4.333496,202.270508,-192.016602
146,-0.778809,0.266113,1.346680,-53.955078,143.920898,-110.778809
147,-0.125488,-0.729980,0.350586,-73.303223,-71.533203,38.940430
148,0.317383,-1.280762,-0.346191,-96.313477,8.361816,-53.161621
149,0.333496,-1.159180,-0.109863,-85.632324,138.549805,-142.822266
150,-0.211426,-0.461914,-0.443359,-158.508301,266.052246,-124.816895
151,-0.462891,-0.417969,-0.033203,-186.401367,388.244629,-123.229980
152,-1.047363,-0.523926,1.715820,-160.339355,371.154785,-122.741699
153,-0.753418,0.156738,1.097168,-32.043457,-0.915527,-73.730469
154,-0.665527,-0.248535,0.846191,-90.270996,-89.294434,-67.077637
155,-0.366211,-0.159180,0.474609,-168.151855,-103.759766,-42.419434
156,-0.206055,-0.069824,0.252441,-199.157715,-107.666016,-14.221191
157,-0.189941,-0.132812,0.036621,-213.928223,-108.398438,30.273438
158,-0.212402,-0.204590,0.019043,-197.387695,-139.221191,41.564941
159,-0.233887,-0.393066,0.040039,-191.772461,-168.884277,51.147461
160,0.083496,-0.666992,-0.551758,-203.369141,-148.498535,75.683594
161,0.152832,-0.746582,-0.612305,-181.945801,-88.317871,120.117188
162,0.088379,-0.691895,-0.492188,-142.333984,-32.287598,163.635254
163,-0.511719,-0.468262,-0.423340,17.883301,-40.222168,187.255859
164,-0.654785,-0.062988,-0.268066,78.002930,-80.749512,186.462402
165,-1.088379,-0.722168,0.361816,25.573730,-120.056152,181.579590
166,-0.583008,-0.720703,-0.460938,-162.963867,-113.037109,142.700195
167,-0.401855,-0.848633,-0.673340,-202.453613,-71.411133,127.075195
168,-0.620117,-1.172363,-0.802246,-225.524902,-29.174805,92.712402
169,-0.815430,-1.545898,-0.212402,-306.091309,-1.525879,22.338867
170,-0.675781,-1.442871,0.092773,-337.463379,-44.067383,3.723145
171,-0.698242,-1.504883,-0.131836,-333.923340,-105.651855,-6.408691
172,-0.849609,-1.652344,-0.583008,-298.217773,-143.249512,-28.198242
173,-0.799805,-1.386230,-1.848145,-130.371094,-76.599121,-78.186035
174,-0.729004,-0.989746,-1.797852,-25.817871,-1.098633,-60.180664
175,-0.833008,-0.656738,-1.412109,36.254883,59.509277,-13.427734
176,-1.188965,-0.692871,-1.076660,67.138672,69.885254,44.860840
177,-1.707031,-1.498047,-0.498047,12.145996,46.447754,17.150879
178,-1.414062,-1.541504,-0.456055,-46.691895,22.338867,-20.385742
179,-1.052246,-1.375977,-0.538574,-89.172363,7.202148,-43.029785
180,-0.813965,-1.190430,-0.659668,-102.905273,11.718750,-49.682617
181,-0.742676,-1.052246,-0.582520,-71.777344,51.818848,-53.344727
182,-0.746582,-1.016602,-0.421387,-46.997070,63.659668,-66.711426
183,-0.773438,-0.870605,-0.278320,-32.897949,69.702148,-80.749512
184,-0.850098,-0.399902,0.175293,-19.042969,42.053223,-94.726562
185,-0.765625,-0.009766,0.228027,-56.091309,14.160156,-62.194824
186,-0.810059,0.139160,0.033203,-73.791504,-8.117676,-21.240234
187,-0.802734,0.182617,-0.193848,-78.857422,-28.991699,15.075684
188,-0.770020,-0.184082,-0.472168,-25.268555,-46.630859,8.666992
189,-0.630371,-0.143555,-0.358398,-2.807617,-51.391602,-6.713867
190,-0.503906,-0.150879,-0.217773,-14.221191,-49.011230,-1.159668
191,-0.382324,-0.394043,-0.242676,-82.824707,-39.123535,5.737305
192,-0.337402,-0.456543,-0.299316,-102.355957,-34.301758,1.831055
193,-0.337402,-0.540527,-0.350098,-116.760254,-25.390625,0.427246
194,-0.323242,-0.638672,-0.425781,-119.445801,-15.502930,-2.075195
195,-0.125977,-0.569824,-0.400391,-86.181641,-24.658203,-4.333496
196,0.030273,-0.371582,-0.332031,-60.729980,-55.603027,14.953613
197,-0.002441,-0.431641,-0.373047,-55.297852,-87.585449,39.916992
198,-0.213867,-0.565430,-0.672852,-77.026367,-61.523438,15.747070
199,-0.271484,-0.465332,-0.541016,-65.856934,-36.010742,-1.403809
200,-0.350098,-0.430664,-0.490234,-45.898438,-28.320312,-13.000488
201,-0.444824,-0.416016,-0.497559,-15.869141,-34.301758,-25.146484
202,-0.512207,-0.340820,-0.411133,45.166016,-72.143555,-64.575195
203,-0.453125,-0.292969,-0.463379,77.270508,-99.060059,-70.922852
204,-0.480469,-0.331055,-0.595215,100.891113,-116.394043,-64.270020
205,-0.654297,-0.658691,-0.894043,71.044922,-89.538574,-24.475098
206,-0.691406,-0.870117,-0.962402,60.791016,-62.500000,-23.864746
207,-0.615723,-0.979980,-1.008789,51.574707,-36.071777,-29.479980
208,-0.362305,-0.955566,-0.747559,26.672363,-12.695312,-43.945312
209,-0.321289,-1.060059,-0.972656,24.475098,-6.164551,-41.015625
210,-0.620605,-0.854004,-0.799805,17.578125,-0.671387,-24.230957
211,-0.981445,-0.640625,-0.566895,33.447266,-41.992188,-1.831055
212,-1.081543,-0.509766,-0.524902,34.912109,-57.312012,-4.577637
213,-0.956543,-0.469238,-0.759766,-1.342773,-28.503418,-22.216797
214,-0.856934,-0.527832,-0.888672,-14.709473,-6.591797,-10.681152
215,-0.863770,-0.735840,-0.886719,-36.071777,14.953613,4.028320
216,-0.892090,-1.172363,-0.901855,-58.044434,20.141602,9.826660
217,-0.783691,-0.971680,-0.229004,-10.009766,18.371582,-17.700195
218,-0.980469,-1.015137,-0.272949,-12.145996,36.743164,-13.854980
219,-1.020508,-1.046875,-0.272949,-19.042969,53.649902,-12.939453
220,-0.809570,-0.941406,-0.170898,-14.831543,48.950195,-26.184082
221,-0.735352,-0.924805,-0.212891,-16.662598,45.959473,-32.043457
222,-0.666504,-0.886230,-0.187012,-21.484375,41.992188,-32.958984
223,-0.587891,-0.791016,-0.144531,-36.804199,8.972168,-23.071289
224,-0.559082,-0.773926,-0.164062,-41.564941,-10.559082,-24.230957
225,-0.528320,-0.751465,-0.200684,-44.860840,-26.367188,-29.174805
226,-0.504395,-0.714355,-0.263672,-43.334961,-34.301758,-36.193848
227,-0.479004,-0.695801,-0.226074,-20.935059,-28.381348,-41.381836
228,-0.476562,-0.705078,-0.143555,-12.512207,-23.254395,-37.780762
229,-0.478516,-0.745605,-0.070312,-9.033203,-21.057129,-32.104492
230,-0.473145,-0.791016,-0.015625,-5.676270,-25.451660,-30.273438
231,-0.413574,-0.786621,-0.088379,1.708984,-42.724609,-36.071777
232,-0.367676,-0.674805,-0.203125,4.943848,-47.180176,-31.433105
233,-0.383789,-0.626465,-0.368164,7.202148,-46.264648,-26.550293
234,-0.353027,-0.525879,-0.525879,13.305664,-39.245605,-23.742676
235,-0.317383,-0.425293,-0.645020,49.987793,-20.019531,-6.652832
236,-0.327148,-0.442383,-0.581543,71.533203,-15.075684,-5.249023
237,-0.355469,-0.522461,-0.473633,76.049805,-1.220703,-10.803223
238,-0.345703,-0.492188,-0.438965,71.655273,4.455566,-10.803223
239,-0.354980,-0.489258,-0.442383,64.147949,10.192871,-7.019043
240,-0.356934,-0.500488,-0.443848,50.537109,17.089844,-2.563477
241,-0.356934,-0.401367,-0.505859,39.001465,20.507812,7.507324
242,-0.369141,-0.370605,-0.537109,46.508789,17.028809,13.732910
243,-0.374023,-0.410156,-0.531738,62.072754,11.108398,17.028809
244,-0.472656,-0.577148,-0.391113,75.012207,1.159668,25.817871
245,-0.524902,-0.651367,-0.287598,63.781738,-1.342773,33.081055
246,-0.563477,-0.720703,-0.245605,51.757812,-5.371094,39.733887
247,-0.627930,-0.945312,-0.248535,49.926758,-17.639160,31.921387
248,-0.557129,-0.986816,-0.289551,52.185059,-22.583008,20.996094
249,-0.474609,-0.979004,-0.451660,54.077148,-19.348145,16.967773
250,-0.558105,-0.976074,-0.671387,67.687988,16.601562,18.188477
251,-0.607422,-0.993164,-0.717285,64.208984,37.536621,17.578125
252,-0.643066,-1.052246,-0.858398,62.744141,60.852051,12.695312
253,-0.502441,-1.189453,-0.833984,79.589844,95.336914,-2.014160
254,-0.390137,-1.218262,-0.778320,79.711914,98.571777,-3.601074
255,-0.369141,-1.222656,-0.665527,67.687988,95.825195,1.525879
256,-0.467285,-1.199219,-0.530273,41.076660,87.402344,1.953125
257,-0.712402,-0.984863,-0.344238,-30.456543,43.273926,8.483887
258,-0.787109,-0.954590,-0.351074,-62.377930,17.639160,12.207031
259,-0.769043,-0.938477,-0.384766,-94.055176,0.183105,16.601562
260,-0.712402,-1.087402,-0.397461,-116.882324,-21.728516,24.902344
261,-0.700684,-1.169922,-0.318848,-106.140137,-28.808594,25.512695
262,-0.583008,-1.077148,-0.301270,-67.810059,-9.460449,33.752441
263,-0.522949,-0.969238,-0.256348,-49.133301,18.676758,41.564941
264,-0.520020,-0.869629,-0.235352,-22.705078,43.090820,51.635742
265,-0.540039,-0.773926,-0.181641,7.446289,60.546875,59.204102
266,-0.663086,-0.565918,-0.032227,52.490234,64.941406,59.692383
267,-0.728027,-0.429688,-0.000488,61.767578,57.373047,54.443359
268,-0.779785,-0.305664,0.009277,58.532715,48.034668,49.194336
269,-0.822266,-0.373047,0.013672,26.855469,20.385742,21.362305
270,-0.812988,-0.423340,-0.058594,7.263184,7.324219,-1.953125
271,-0.765625,-0.480469,-0.140625,-13.610840,6.225586,-20.263672
272,-0.579102,-0.592285,-0.213379,-37.353516,8.422852,-31.799316
273,-0.382812,-0.560059,-0.245605,-48.278809,18.127441,-27.038574
274,-0.252930,-0.548828,-0.217285,-50.842285,19.104004,-13.610840
275,-0.180176,-0.722168,-0.351074,-33.630371,-66.589355,47.790527
276,-0.209961,-0.725098,-0.619629,-32.958984,-99.182129,70.373535
277,-0.226074,-0.517090,-0.577148,-40.832520,-95.703125,79.650879
278,-0.259766,-0.424316,-0.474121,-38.208008,-29.296875,27.832031
279,-0.208984,-0.245117,-0.397461,-28.137207,10.192871,0.000000
280,-0.200195,-0.217285,-0.478027,-8.056641,17.395020,-4.455566
281,-0.415527,-0.440918,-0.152344,37.048340,-4.089355,-3.845215
282,-0.426270,-0.512207,-0.172363,38.940430,-23.071289,-9.338379
283,-0.393066,-0.569824,-0.318359,43.884277,-35.888672,-16.845703
284,-0.492676,-0.574707,-0.447266,39.916992,-52.001953,-35.034180
285,-0.586426,-0.623047,-0.453125,-4.150391,-60.485840,-42.907715
286,-0.621582,-0.745117,-0.538086,-25.329590,-49.499512,-49.438477
287,-0.630859,-0.839355,-0.562012,-32.775879,-37.353516,-56.457520
288,-0.650879,-0.979492,-0.556641,-8.178711,-22.460938,-62.377930
289,-0.627441,-1.113770,-0.577637,9.948730,-24.719238,-55.236816
290,-0.537109,-1.361328,-0.757324,27.282715,-36.071777,-31.982422
291,-0.906250,-0.953613,-0.602539,74.035645,-69.213867,22.705078
292,-1.077148,-0.633301,-0.412598,66.711426,-66.040039,15.441895
293,-1.000977,-0.506836,-0.547852,38.818359,-54.138184,-2.807617
294,-0.833496,-0.479980,-0.660645,15.686035,-36.499023,-15.808105
295,-0.830078,-0.610352,-0.496582,-22.460938,-3.845215,-21.911621
296,-0.945312,-0.817871,-0.342285,-43.701172,-10.375977,-7.385254
297,-0.947266,-1.292969,-0.585938,-34.851074,-21.911621,8.361816
298,-0.753418,-1.389648,-0.436035,56.274414,24.353027,-24.047852
299,-0.875488,-1.229492,-0.213867,76.721191,41.503906,-31.860352
300,-0.852539,-1.077637,-0.167969,93.322754,51.635742,-31.494141
301,-0.737305,-0.849609,-0.116211,114.379883,58.959961,-44.006348
302,-0.643555,-0.789062,0.030762,114.807129,58.349609,-50.476074
303,-0.603027,-0.768066,0.146973,96.313477,55.114746,-48.095703
304,-0.590820,-0.724609,0.212402,65.795898,47.729492,-35.095215
305,-0.637207,-0.752441,0.321289,2.441406,7.385254,-16.784668
306,-0.608887,-0.707520,0.257812,-16.540527,-20.141602,-20.751953
307,-0.577637,-0.680176,0.120605,-23.437500,-30.639648,-24.169922
308,-0.497559,-0.725098,0.062500,-5.310059,-19.042969,-24.780273
309,-0.511719,-0.767578,0.202637,8.850098,-25.207520,-20.507812
310,-0.535645,-0.828613,0.279297,16.174316,-38.635254,-15.014648
311,-0.525879,-0.855957,0.263184,17.517090,-49.499512,-10.925293
312,-0.489258,-0.804199,0.053223,-12.329102,-41.809082,-6.652832
313,-0.486328,-0.760742,-0.049805,-27.893066,-33.569336,-14.160156
314,-0.468262,-0.707031,-0.111816,-38.024902,-31.555176,-16.174316
315,-0.426758,-0.609863,-0.230469,-41.503906,-36.254883,-10.925293
316,-0.339844,-0.514648,-0.337402,-35.583496,-36.865234,-8.178711
317,-0.275879,-0.477539,-0.435059,-18.737793,-33.325195,-3.784180
318,-0.370605,-0.584473,-0.428223,8.911133,-21.911621,-0.915527
319,-0.402344,-0.606445,-0.403320,13.000488,-11.413574,-2.380371
320,-0.415527,-0.566895,-0.404297,7.507324,0.305176,-0.244141
321,-0.454590,-0.541992,-0.428711,7.019043,9.826660,3.967285
322,-0.489258,-0.556152,-0.382812,8.300781,15.136719,7.019043
323,-0.525879,-0.619141,-0.284180,-6.958008,11.352539,12.695312
324,-0.523438,-0.643066,-0.362793,-15.563965,9.887695,15.319824
325,-0.541992,-0.729004,-0.388184,-27.648926,12.695312,18.737793
326,-0.550781,-0.764648,-0.384277,-34.118652,12.939453,18.798828
327,-0.560059,-0.844727,-0.371094,-39.550781,10.498047,18.310547
328,-0.521973,-0.921387,-0.399902,-52.551270,8.117676,14.160156
329,-0.539551,-0.973633,-0.391113,-52.734375,6.286621,11.718750
330,-0.541504,-1.009277,-0.404297,-50.537109,5.187988,9.643555
331,-0.479004,-1.072754,-0.652832,-29.418945,16.845703,11.718750
332,-0.422363,-1.118652,-0.905273,-4.577637,46.142578,13.305664
333,-0.368164,-1.132812,-0.966797,27.099609,86.059570,13.854980
334,-0.453125,-1.142090,-0.722656,68.298340,128.967285,15.808105
335,-0.571777,-1.090820,-0.591309,57.189941,127.258301,8.728027
336,-0.664062,-1.005371,-0.517578,27.526855,116.027832,4.089355
337,-0.840820,-0.893555,-0.309570,-66.284180,72.021484,-4.089355
338,-0.803711,-0.793457,-0.330078,-103.637695,45.593262,2.746582
339,-0.813477,-0.836914,-0.394531,-125.061035,26.672363,11.962891
340,-0.857422,-1.090332,-0.402344,-126.586914,13.366699,19.531250
341,-0.827148,-1.235352,-0.409668,-106.079102,10.314941,17.211914
342,-0.680664,-1.277832,-0.389648,-74.218750,11.962891,12.512207
343,-0.498047,-1.225586,-0.331543,-36.254883,34.545898,20.446777
344,-0.425293,-0.985840,-0.376465,-16.967773,53.222656,32.287598
345,-0.499512,-0.897461,-0.167480,-5.065918,63.598633,37.170410
346,-0.578125,-0.780273,-0.038086,-4.211426,61.584473,40.527344
347,-0.752930,-0.625977,0.014648,-22.399902,46.264648,31.372070
348,-0.821289,-0.561035,0.013672,-36.743164,37.597656,14.099121
349,-0.902344,-0.405273,0.187988,-81.848145,29.724121,-5.493164
350,-0.720215,-0.375977,-0.229980,-201.904297,32.897949,-26.245117
351,-0.492676,-0.305176,-0.310547,-196.228027,19.287109,-25.085449
352,-0.431152,-0.270508,-0.521484,-145.263672,-8.056641,-14.648438
353,-0.637695,-0.474609,-0.495605,52.001953,-47.729492,-50.903320
354,-0.439941,-0.282227,-0.365723,84.350586,-54.931641,-64.331055
355,-0.418945,-0.346680,-0.407227,89.843750,-53.955078,-57.250977
356,-0.240723,-0.502930,-0.354004,107.360840,-31.250000,-11.474609
357,-0.217773,-0.571289,-0.160645,120.056152,-35.095215,-7.446289
358,-0.107422,-0.565430,-0.117188,129.028320,-51.574707,-3.234863
359,0.311523,-0.895508,-0.512695,93.383789,-82.946777,0.488281
360,0.295898,-0.799805,-0.492188,59.143066,-73.913574,-10.070801
361,0.190430,-0.592285,-0.293945,29.235840,-74.645996,-16.845703
362,0.081543,-0.412109,-0.217773,2.990723,-86.853027,-15.014648
363,-0.316895,-0.380371,-0.367676,-17.333984,-86.730957,-0.061035
364,-0.381348,-0.464844,-0.112793,-28.869629,-74.279785,-5.310059
365,-0.561523,-0.582520,-0.385742,-35.522461,-55.236816,-31.921387
366,-0.611816,-0.577637,-0.366699,-29.174805,-46.020508,-38.085938
367,-0.608887,-0.571777,-0.430664,-22.155762,-44.982910,-36.987305
368,-0.600098,-0.580078,-0.458008,-20.507812,-53.955078,-29.968262
369,-0.511719,-0.784180,-0.977539,-45.104980,-76.416016,-12.878418
370,-0.497559,-1.121582,-1.545898,-21.240234,-52.978516,-18.432617
371,-0.378906,-1.312988,-1.712402,20.080566,4.882812,-33.569336
372,-0.341797,-1.200195,-0.737793,69.519043,75.866699,-44.738770
373,-0.367676,-1.163086,-0.624512,79.040527,65.063477,-39.245605
374,-0.463867,-1.042969,-0.555176,91.369629,42.053223,-30.212402
375,-0.828125,-0.450195,0.168945,114.135742,-91.064453,14.648438
376,-0.930664,-0.433105,-0.058105,78.491211,-135.131836,19.775391
377,-0.864258,-0.419434,-0.268555,21.362305,-128.662109,8.728027
378,-0.740234,-0.699219,-0.796875,-121.582031,-5.187988,-13.610840
379,-0.981934,-1.263672,-1.270996,-202.880859,86.791992,-21.667480
380,-0.704590,-1.586426,-1.033203,-178.283691,117.858887,-34.606934
381,-0.579590,-1.213379,0.195312,102.844238,-22.888184,14.221191
382,-0.931641,-1.334961,0.127441,100.952148,-37.841797,18.798828
383,-0.981934,-1.298828,0.031738,60.363770,-18.188477,1.159668
384,-0.617188,-0.889160,0.009277,-10.437012,25.695801,-21.362305
385,-0.546875,-0.862793,0.032715,-34.912109,27.526855,-27.404785
386,-0.483887,-0.838379,0.046387,-54.504395,19.958496,-31.127930
387,-0.440430,-0.968750,-0.023926,-61.584473,-6.530762,-27.648926
388,-0.457031,-0.989258,-0.101074,-43.884277,-19.592285,-32.287598
389,-0.459961,-0.988281,-0.097168,-21.118164,-30.456543,-33.447266
390,-0.445312,-0.983887,-0.074219,-2.563477,-40.710449,-33.325195
391,-0.397949,-0.942383,-0.068359,16.418457,-49.804688,-26.306152
392,-0.381836,-0.878906,-0.054688,19.409180,-47.546387,-18.798828
393,-0.392578,-0.831055,-0.061523,20.080566,-43.212891,-10.070801
394,-0.423340,-0.690430,-0.110840,21.667480,-38.574219,-4.943848
395,-0.447266,-0.578125,-0.090332,20.629883,-37.231445,-3.723145
396,-0.424316,-0.551758,-0.159668,10.681152,-34.301758,-4.882812
397,-0.402344,-0.658203,-0.365723,-8.361816,-21.240234,-11.840820
398,-0.384277,-0.670898,-0.369629,-16.967773,-14.038086,-12.329102
399,-0.350586,-0.651367,-0.474121,-26.000977,-6.774902,-10.314941
400,-0.335449,-0.639648,-0.539551,-19.836426,1.770020,-7.324219
401,-0.359375,-0.547852,-0.476074,-7.385254,16.540527,1.037598
402,-0.410156,-0.517090,-0.466797,-3.356934,21.606445,7.263184
403,-0.481445,-0.496582,-0.496094,8.544922,27.709961,19.836426
404,-0.486816,-0.474121,-0.542480,17.822266,32.165527,25.939941
405,-0.456055,-0.479492,-0.558594,22.460938,34.545898,31.738281
406,-0.473633,-0.524902,-0.486816,22.644043,32.409668,34.484863
407,-0.529297,-0.615723,-0.354492,-9.155273,2.685547,28.259277
408,-0.540039,-0.632812,-0.407227,-18.310547,-11.047363,28.381348
409,-0.530762,-0.677734,-0.431641,-20.141602,-16.601562,29.846191
410,-0.510254,-0.811523,-0.447754,-20.263672,-19.531250,28.930664
411,-0.506348,-0.880371,-0.434570,-20.202637,-22.338867,26.306152
412,-0.517090,-0.946777,-0.447754,-18.676758,-26.367188,22.705078
413,-0.522949,-0.999023,-0.485840,-15.380859,-29.357910,18.188477
414,-0.491211,-0.990234,-0.901367,2.075195,-10.620117,15.625000
415,-0.578125,-1.116699,-1.072754,6.958008,38.085938,6.225586
416,-0.466797,-1.062500,-1.148926,-2.319336,100.280762,-7.202148
417,-0.360352,-1.024414,-1.036621,1.037598,143.798828,-11.413574
418,-0.400879,-1.060059,-0.679688,7.812500,148.498535,3.967285
419,-0.557617,-1.062500,-0.442871,-6.469727,119.384766,4.150391
420,-0.664551,-1.003418,-0.405273,-49.438477,50.781250,23.498535
421,-0.791504,-1.181641,-0.409668,-51.818848,22.949219,35.766602
422,-0.805664,-1.259277,-0.381836,-47.241211,0.976562,37.841797
423,-0.742188,-1.274414,-0.272461,-40.954590,-21.423340,35.339355
424,-0.710938,-1.127441,-0.324219,-33.264160,-46.264648,15.869141
425,-0.645508,-0.923340,-0.489258,-35.278320,-22.705078,19.226074
426,-0.619141,-0.714355,-0.418457,-3.784180,46.997070,46.752930
427,-0.659668,-0.693848,-0.241211,19.287109,60.852051,52.429199
428,-0.678223,-0.634766,-0.079102,39.123535,58.898926,53.833008
429,-0.775391,-0.566895,0.216309,54.321289,22.033691,41.931152
430,-0.785645,-0.496582,0.332520,38.269043,-6.042480,27.099609
431,-0.743164,-0.428223,0.324219,10.620117,-31.860352,14.648438
432,-0.722168,-0.464844,0.135254,-10.437012,-48.339844,1.159668
433,-0.619629,-0.464844,-0.215820,13.732910,-44.555664,-28.320312
434,-0.518555,-0.396484,-0.222656,31.005859,-29.968262,-26.672363
435,-0.480469,-0.511719,-0.110840,37.353516,-12.145996,-17.150879
436,-0.444336,-0.550781,-0.114746,44.433594,-17.944336,-20.080566
437,-0.401855,-0.528320,-0.129883,53.771973,-25.573730,-21.789551
438,-0.031250,-1.213867,-0.933105,-56.640625,-90.820312,-7.446289
439,0.039062,-1.230469,-1.464355,-129.577637,-63.537598,-23.254395
440,0.101562,-0.745605,-1.011719,-160.949707,-23.071289,-24.536133
441,-0.029297,-0.291992,-0.288574,-170.349121,-32.897949,-5.737305
442,-0.077148,-0.221680,-0.185059,-176.574707,-50.048828,1.037598
443,-0.113281,-0.166504,-0.147461,-172.424316,-63.781738,5.981445
444,-0.275391,-0.339844,-0.244141,-126.892090,-72.509766,5.371094
445,-0.266113,-0.374512,-0.405273,-89.416504,-56.762695,-1.037598
446,-0.308594,-0.442383,-0.414062,-42.846680,-24.597168,-9.948730
447,-0.461426,-0.337891,-0.345703,21.911621,-20.568848,-54.931641
448,-0.500977,-0.325684,-0.545898,62.072754,-50.415039,-67.382812
449,-0.397461,-0.231445,-0.680176,95.703125,-72.937012,-69.702148
450,-0.500977,-0.500488,-0.900879,98.022461,-84.167480,-36.499023
451,-0.651367,-0.988770,-1.219727,75.256348,-61.340332,-24.169922
452,-0.851074,-1.999512,-2.029785,37.170410,8.178711,-44.433594
453,-0.967773,-2.507812,-2.343750,44.799805,89.538574,-82.275391
454,-0.983887,-0.795898,0.145020,131.835938,12.512207,35.949707
455,-1.165527,-0.435059,0.487305,93.750000,-70.373535,57.556152
456,-1.168945,-0.190430,0.220703,26.550293,-111.999512,59.448242
457,-0.865234,-0.175293,-0.446777,-58.044434,-66.589355,24.169922
458,-0.711426,-0.212402,-0.642578,-70.373535,-10.803223,3.906250
459,-0.728516,-0.459473,-0.755371,-75.012207,46.081543,-10.009766
460,-0.737305,-1.157715,-0.358398,-10.864258,44.921875,-24.475098
461,-0.764160,-1.094238,-0.116211,111.999512,-21.789551,-5.798340
462,-0.873535,-1.021484,-0.072266,159.606934,-31.799316,8.422852
463,-0.720215,-1.027344,0.065430,108.520508,22.155762,-7.629395
464,-0.665039,-0.987793,0.053711,70.739746,55.358887,-21.118164
465,-0.631836,-0.950195,0.085449,11.535645,97.351074,-36.254883
466,-0.570312,-0.887207,0.150879,-4.089355,100.280762,-34.606934
467,-0.563477,-0.941895,0.168457,-14.709473,91.003418,-33.630371
468,-0.566406,-1.039062,0.130371,-18.920898,74.523926,-36.376953
469,-0.558105,-1.110840,0.054199,-18.066406,55.908203,-42.663574
470,-0.570801,-1.230957,-0.107910,-18.798828,27.465820,-56.152344
471,-0.522949,-1.214355,-0.159668,-23.254395,18.737793,-60.180664
472,-0.446777,-1.167969,-0.175293,-28.869629,9.582520,-56.762695
473,-0.251953,-0.975098,-0.200684,-23.071289,-18.188477,-41.503906
474,-0.204590,-0.853027,-0.255859,-11.657715,-32.653809,-33.691406
475,-0.178711,-0.722168,-0.311523,4.028320,-40.344238,-27.648926
476,-0.225586,-0.607910,-0.404785,35.888672,-37.231445,-22.216797
477,-0.219727,-0.590332,-0.453613,42.297363,-25.451660,-26.855469
478,-0.197754,-0.550293,-0.473145,39.123535,-9.033203,-32.165527
479,-0.191406,-0.500000,-0.533691,30.639648,7.568359,-30.761719
480,-0.159668,-0.461426,-0.723633,37.414551,45.776367,-11.474609
481,-0.130371,-0.329102,-0.715820,50.659180,73.852539,-0.488281
482,-0.146973,-0.250000,-0.639160,58.349609,101.928711,18.066406
483,-0.329102,-0.375977,-0.406250,55.725098,122.131348,47.668457
484,-0.441895,-0.476074,-0.301758,54.870605,104.187012,53.100586
485,-0.520996,-0.558594,-0.258301,49.987793,76.721191,53.100586
486,-0.586914,-0.668457,-0.233398,12.695312,24.475098,44.006348
487,-0.537598,-0.690430,-0.281738,-14.587402,6.835938,33.752441
488,-0.490234,-0.682129,-0.410645,-34.362793,-5.249023,31.066895
489,-0.448730,-0.830078,-0.498047,-34.912109,-17.883301,25.939941
490,-0.421387,-0.946289,-0.449707,-36.376953,-25.146484,20.629883
491,-0.384766,-1.035645,-0.406250,-44.311523,-36.254883,12.878418
492,-0.311035,-1.198730,-0.374023,-66.406250,-67.443848,-11.535645
493,-0.266602,-1.232422,-0.568848,-73.791504,-79.895020,-21.118164
494,-0.221680,-1.276855,-1.048340,-60.546875,-67.199707,-24.475098
495,0.015625,-1.178711,-1.556152,24.169922,59.143066,-12.329102
496,0.025879,-0.997559,-1.236328,43.395996,126.403809,10.742188
497,-0.068359,-0.934570,-0.937988,33.935547,169.433594,34.362793
498,-0.380371,-0.937012,-0.354004,4.455566,141.784668,57.678223
499,-0.569824,-0.944336,-0.264160,-7.324219,88.378906,57.128906
500,-0.752930,-0.958984,-0.329590,-16.662598,38.513184,52.734375
501,-0.857910,-1.054199,-0.327637,-46.691895,-14.038086,31.677246
502,-0.779297,-1.020996,-0.260254,-76.965332,-34.362793,18.737793
503,-0.712402,-1.028809,-0.260254,-100.402832,-54.016113,11.901855
504,-0.744141,-1.061035,-0.584473,-94.665527,-59.020996,-5.432129
505,-0.740723,-0.899414,-0.653809,-78.125000,-25.878906,-0.427246
506,-0.772949,-0.814453,-0.510254,-50.903320,-0.427246,14.038086
507,-0.787109,-0.724609,-0.191406,11.169434,8.361816,19.958496
508,-0.736328,-0.612793,-0.121582,35.095215,6.652832,18.676758
509,-0.693359,-0.520020,0.019531,57.922363,7.080078,14.099121
510,-0.685547,-0.526855,0.085938,49.438477,2.685547,6.896973
511,-0.645020,-0.515625,0.138672,31.494141,-7.263184,-0.976562
512,-0.551270,-0.522949,0.041016,-27.404785,-46.875000,-8.178711
513,-0.502930,-0.547852,-0.095703,-42.907715,-62.500000,-8.911133
514,-0.316895,-0.531250,-0.170898,-62.500000,-97.290039,-5.737305
515,-0.112305,-0.698730,-0.259277,-75.073242,-151.733398,17.395020
516,-0.120605,-0.990234,-0.937988,-99.792480,-200.927734,35.400391
517,-0.192871,-0.932617,-1.431641,-100.036621,-178.894043,36.560059
518,-0.270020,-0.447266,-0.731934,-128.601074,-64.575195,44.433594
519,-0.297852,-0.347168,-0.386719,-135.559082,-48.767090,45.227051
520,-0.227539,-0.275879,-0.266602,-128.784180,-44.372559,36.010742
521,-0.183105,-0.267090,-0.296875,-105.529785,-29.968262,29.846191
522,-0.164551,-0.248535,-0.224609,-75.622559,-10.925293,22.399902
523,-0.262695,-0.288574,-0.023438,-32.104492,7.446289,-2.746582
524,-0.338379,-0.336426,-0.040039,-12.268066,3.723145,-19.470215
525,-0.407227,-0.375000,-0.142578,13.000488,-6.164551,-36.437988
526,-0.504883,-0.418945,-0.280273,47.485352,-19.226074,-52.368164
527,-0.608398,-0.377441,-0.449707,108.520508,-48.828125,-81.542969
528,-0.639160,-0.420898,-0.549316,124.145508,-62.316895,-88.562012
529,-0.498535,-0.663574,-1.012207,103.881836,-82.458496,-74.157715
530,-0.420898,-1.103516,-1.663086,71.533203,-59.631348,-55.419922
531,-0.510254,-2.076660,-2.433594,35.339355,29.174805,-59.997559
532,-0.516602,-1.909668,-1.884277,49.865723,121.765137,-67.626953
533,-0.636230,-1.247070,-0.559082,72.509766,116.088867,-26.062012
534,-1.207031,-0.436035,0.325684,18.066406,-54.199219,38.024902
535,-1.289551,-0.253906,0.074707,-10.742188,-91.369629,44.311523
536,-0.852051,-0.233398,-0.423340,-38.696289,-73.913574,8.605957
537,-0.712891,-0.395020,-0.811523,-44.372559,-27.404785,-11.047363
538,-0.954590,-0.917480,-1.396484,-94.299316,42.236328,-14.221191
539,-0.922852,-1.436035,-0.983398,-83.435059,57.006836,-7.202148
540,-0.854004,-0.800781,-0.076660,146.850586,-32.958984,18.920898
541,-0.972656,-0.745605,0.119141,129.272461,-1.586914,15.747070
542,-0.898926,-0.823242,0.104004,90.332031,33.508301,-3.112793
543,-0.743164,-0.852539,-0.006836,60.485840,92.163086,-40.893555
544,-0.735352,-0.874512,0.014160,55.603027,112.915039,-50.903320
545,-0.698730,-0.876465,0.075684,50.109863,119.873047,-52.917480
546,-0.615723,-0.928223,0.167480,31.982422,93.872070,-44.189453
547,-0.593262,-0.956055,0.159668,17.456055,71.899414,-44.494629
548,-0.560547,-0.964355,0.131836,-4.089355,50.476074,-45.593262
549,-0.612305,-1.088379,-0.033203,-59.143066,17.272949,-46.569824
550,-0.616211,-1.148438,-0.194824,-71.411133,8.666992,-51.635742
551,-0.398926,-0.990723,-0.283203,-42.358398,-6.103516,-48.461914
552,-0.293457,-0.854492,-0.260254,-17.944336,-17.150879,-35.888672
553,-0.242188,-0.727539,-0.256836,1.892090,-25.268555,-23.376465
554,-0.235352,-0.650391,-0.305176,39.855957,-26.672363,-8.117676
555,-0.265625,-0.623047,-0.467285,54.931641,-14.770508,-7.934570
556,-0.241699,-0.613281,-0.535645,62.561035,5.676270,-8.911133
557,-0.224121,-0.598633,-0.557129,66.040039,30.517578,-10.559082
558,-0.192383,-0.539062,-0.566406,59.082031,77.087402,-6.164551
559,-0.183594,-0.472168,-0.559570,54.260254,93.933105,1.403809
560,-0.215820,-0.383301,-0.493652,53.405762,102.600098,26.733398
561,-0.264648,-0.404785,-0.469727,48.950195,96.740723,37.658691
562,-0.317383,-0.448242,-0.430176,42.053223,85.449219,42.541504
563,-0.348145,-0.485352,-0.381348,30.517578,69.885254,43.151855
564,-0.379395,-0.608398,-0.376465,-5.432129,36.804199,38.696289
565,-0.369141,-0.663086,-0.401855,-20.385742,23.376465,34.057617
566,-0.363770,-0.710938,-0.442383,-29.235840,12.512207,29.846191
567,-0.343262,-0.815918,-0.441406,-31.982422,-3.417969,20.812988
568,-0.320801,-0.872070,-0.395996,-34.851074,-12.451172,15.441895
569,-0.289062,-0.935547,-0.374023,-40.954590,-24.108887,9.033203
570,-0.250000,-1.050293,-0.647949,-39.367676,-39.245605,-0.793457
571,-0.204102,-1.047852,-0.894043,-21.118164,-26.794434,3.601074
572,-0.176270,-1.074707,-1.130371,8.605957,0.305176,15.625000
573,-0.227051,-1.190918,-1.282227,70.739746,86.853027,22.827148
574,-0.227051,-1.096680,-1.101562,68.542480,130.920410,25.390625
575,-0.263184,-0.954590,-0.869629,44.677734,156.433105,36.743164
576,-0.550781,-0.890137,-0.422852,-0.366211,123.107910,53.649902
577,-0.672363,-0.875000,-0.297363,-21.179199,73.669434,47.180176
578,-0.763672,-0.852051,-0.328613,-42.663574,28.015137,34.912109
579,-0.791992,-0.860840,-0.424316,-69.030762,2.136230,24.780273
580,-0.706055,-1.029785,-0.394043,-120.605469,-21.057129,6.835938
581,-0.648438,-1.117188,-0.330566,-129.821777,-44.921875,-2.258301
582,-0.623535,-1.190430,-0.386719,-118.408203,-74.523926,-11.657715
583,-0.584961,-0.886719,-0.708008,-67.993164,-68.969727,-8.850098
584,-0.694336,-0.791504,-0.459961,-21.362305,-17.395020,30.456543
585,-0.742188,-0.765137,-0.308105,6.225586,-3.723145,35.644531
586,-0.755859,-0.695312,-0.190918,32.714844,5.432129,34.484863
587,-0.746582,-0.615723,-0.090332,66.833496,19.836426,23.376465
588,-0.714355,-0.511719,0.184570,61.157227,19.714355,11.413574
589,-0.643555,-0.481445,0.242188,37.658691,10.925293,0.122070
590,-0.562500,-0.476074,0.193359,8.361816,0.122070,-9.887695
591,-0.480469,-0.512695,-0.034668,-46.875000,-20.385742,-21.362305
592,-0.446777,-0.506348,-0.150391,-61.401367,-31.005859,-24.353027
593,-0.380859,-0.509277,-0.177246,-67.749023,-46.569824,-24.169922
594,-0.159180,-0.663574,-0.142090,-79.833984,-140.380859,2.868652
595,-0.130371,-1.032715,-1.034180,-98.876953,-221.557617,26.245117
596,-0.106934,-0.890137,-1.674805,-98.144531,-210.327148,39.062500
597,-0.279785,-0.364258,-0.771973,-118.164062,-99.853516,74.218750
598,-0.338867,-0.323730,-0.382324,-118.164062,-90.087891,73.181152
599,-0.325684,-0.284180,-0.271484,-125.671387,-87.829590,62.927246
600,-0.262207,-0.273438,-0.305176,-125.976562,-74.829102,49.865723
601,-0.228516,-0.273438,-0.459473,-80.871582,3.662109,28.869629
602,-0.300781,-0.277344,-0.291992,-45.776367,43.090820,8.666992
603,-0.365234,-0.272949,-0.100098,-13.977051,55.114746,-13.916016
604,-0.522461,-0.294922,-0.150879,51.940918,11.657715,-50.903320
605,-0.618652,-0.326172,-0.347168,78.979492,-11.108398,-67.565918
606,-0.708984,-0.325684,-0.523926,117.431641,-42.968750,-87.097168
607,-0.683594,-0.405762,-0.651367,117.309570,-58.227539,-86.120605
608,-0.620605,-0.572266,-0.917969,101.257324,-70.861816,-77.453613
609,-0.549316,-0.907715,-1.387695,80.078125,-79.895020,-60.241699
610,-0.476562,-1.849121,-2.113281,-4.638672,57.800293,-46.142578
611,-0.603516,-1.359375,-1.009766,42.724609,65.795898,-2.746582
612,-0.686035,-0.877441,-0.165527,61.950684,25.085449,20.568848
613,-1.007324,-0.277832,0.029785,-0.488281,-41.259766,41.076660
614,-1.110840,-0.294922,-0.166992,-23.681641,-53.161621,31.494141
615,-0.952148,-0.363770,-0.566406,-31.494141,-44.555664,11.901855
616,-1.010742,-1.188965,-1.352051,-104.919434,35.583496,17.639160
617,-0.706055,-1.257324,-0.661621,-56.518555,10.742188,19.836426
618,-0.653320,-0.822266,-0.141602,63.415527,-39.855957,36.499023
619,-0.875000,-0.669434,0.038574,95.153809,2.197266,14.099121
620,-0.837891,-0.777832,-0.029785,86.975098,27.221680,-5.493164
621,-0.848145,-0.919434,-0.092285,99.792480,51.879883,-33.386230
622,-0.773926,-0.951172,0.011719,137.145996,95.031738,-77.941895
623,-0.718750,-0.969238,0.154297,135.253906,102.600098,-81.542969
624,-0.630859,-0.988281,0.281738,113.159180,93.444824,-76.416016
625,-0.565430,-0.990723,0.273926,80.322266,73.974609,-68.664551
626,-0.512695,-1.027832,0.124023,8.789062,41.992188,-56.823730
627,-0.516602,-1.042480,0.058594,-29.724121,32.470703,-56.091309
628,-0.536621,-1.067383,-0.048828,-63.415527,23.559570,-57.556152
629,-0.509766,-1.093262,-0.354492,-70.983887,11.840820,-63.110352
630,-0.405273,-1.010742,-0.379395,-46.325684,6.591797,-59.875488
631,-0.279297,-0.886230,-0.301758,-18.554688,-5.004883,-49.133301
632,-0.176758,-0.668945,-0.217285,16.418457,-36.560059,-22.460938
633,-0.217773,-0.617676,-0.282227,29.296875,-47.607422,-12.207031
634,-0.287109,-0.616211,-0.397949,41.687012,-45.776367,-10.131836
635,-0.309570,-0.587891,-0.469238,48.828125,-30.273438,-13.793945
636,-0.281250,-0.529785,-0.577637,51.391602,18.127441,-18.249512
637,-0.260742,-0.513184,-0.605469,52.062988,44.372559,-18.005371
638,-0.196289,-0.409668,-0.618164,52.734375,89.233398,-5.310059
639,-0.211426,-0.395020,-0.598633,56.396484,100.402832,9.582520
640,-0.228516,-0.391602,-0.538086,56.579590,102.416992,23.559570
641,-0.304199,-0.470215,-0.415039,40.527344,84.106445,42.297363
642,-0.326172,-0.502441,-0.382324,25.756836,66.284180,46.203613
643,-0.362305,-0.561035,-0.375488,8.117676,48.156738,48.583984
644,-0.406250,-0.638672,-0.392090,-8.544922,32.409668,46.813965
645,-0.404297,-0.708984,-0.420410,-28.930664,9.643555,37.597656
646,-0.393066,-0.753418,-0.423340,-33.447266,3.112793,34.606934
647,-0.365723,-0.919922,-0.376953,-39.062500,-11.840820,25.390625
648,-0.339844,-1.005371,-0.348633,-41.748047,-25.329590,18.005371
649,-0.300781,-1.045410,-0.354492,-45.288086,-40.466309,9.582520
650,-0.248047,-1.014160,-0.468750,-47.729492,-52.185059,5.737305
651,-0.204590,-1.126465,-1.254395,-9.033203,-14.892578,15.075684
652,-0.128418,-1.245117,-1.541992,40.527344,41.259766,12.756348
653,-0.053711,-1.236816,-1.475098,81.298828,106.018066,12.756348
654,-0.193848,-0.992188,-0.733398,45.410156,174.804688,30.090332
655,-0.328125,-0.938477,-0.451172,8.300781,152.099609,45.959473
656,-0.666992,-0.928223,-0.235352,-45.532227,42.602539,50.048828
657,-0.768555,-0.930664,-0.274902,-61.279297,-5.554199,39.245605
658,-0.784180,-0.923340,-0.311523,-82.031250,-34.912109,27.648926
659,-0.633789,-0.968750,-0.236328,-134.521484,-63.476562,3.845215
660,-0.605957,-1.045410,-0.187500,-147.521973,-88.134766,-5.615234
661,-0.789551,-1.140137,-0.712891,-111.389160,-114.624023,-17.395020
662,-0.861816,-1.031738,-0.861816,-76.110840,-77.453613,-1.831055
663,-0.927734,-0.966797,-0.687500,-38.940430,-33.752441,21.118164
664,-0.979492,-0.992676,-0.420410,26.611328,12.145996,27.404785
665,-0.895996,-0.744629,-0.007812,36.315918,21.606445,16.174316
666,-0.818359,-0.573730,0.135742,24.658203,23.864746,5.126953
667,-0.761230,-0.504883,0.137207,0.244141,17.639160,-5.981445
668,-0.629883,-0.466309,-0.032227,-38.024902,-10.742188,-17.333984
669,-0.555664,-0.505371,-0.205566,-42.541504,-30.456543,-14.526367
670,-0.452148,-0.652832,-0.415039,-13.610840,-63.598633,12.573242
671,-0.296875,-0.711914,-0.376953,-15.686035,-86.547852,22.949219
672,-0.020020,-1.011230,-0.847656,-48.950195,-126.037598,27.587891
673,0.090820,-0.831543,-1.299316,-75.683594,-122.863770,22.949219
674,-0.157715,-0.447754,-0.793945,-107.604980,-37.536621,17.028809
675,-0.188477,-0.283691,-0.409668,-121.398926,-19.470215,17.883301
676,-0.229492,-0.236328,-0.200195,-124.389648,-20.629883,20.751953
677,-0.224121,-0.296387,-0.114258,-93.200684,-31.677246,14.831543
678,-0.157715,-0.259766,-0.166016,-68.115234,-24.780273,8.850098
679,-0.140137,-0.265625,-0.180176,-41.625977,-7.141113,3.479004
680,-0.174805,-0.297852,-0.131836,-18.920898,12.329102,-6.774902
681,-0.236328,-0.336426,-0.044434,15.197754,30.029297,-32.226562
682,-0.301270,-0.389648,-0.108887,29.907227,28.137207,-44.250488
683,-0.382324,-0.383301,-0.176758,43.518066,19.165039,-58.776855
684,-0.548340,-0.445801,-0.356445,50.170898,-34.179688,-75.378418
685,-0.505859,-0.508789,-0.532227,46.630859,-69.946289,-72.204590
686,-0.474121,-0.828125,-0.866211,15.502930,-86.425781,-46.569824
687,-0.473633,-1.021973,-1.066895,15.869141,-77.758789,-44.189453
688,-0.393066,-1.057617,-1.314941,37.902832,-57.983398,-39.978027
689,-0.283691,-1.231445,-1.762207,74.218750,-25.634766,-27.160645
690,-0.883301,-1.008301,-0.704102,133.361816,-24.353027,7.751465
691,-1.195801,-0.614258,-0.137695,92.956543,-90.698242,40.100098
692,-1.111816,-0.451172,-0.118164,31.616211,-122.131348,35.278320
693,-0.731934,-0.518066,-0.370605,-50.964355,-83.190918,-26.794434
694,-0.634277,-0.597168,-0.399902,-65.124512,-26.367188,-61.096191
695,-0.675293,-0.704102,-0.279785,-77.453613,26.367188,-84.228516
696,-1.422363,-1.110840,-0.136719,-172.790527,-8.666992,-37.170410
697,-1.482910,-2.014160,-1.082520,-147.399902,-81.542969,-17.333984
698,-1.059570,-1.992676,-1.504883,-36.132812,-58.166504,-46.386719
699,-0.655762,-1.159668,-1.023926,26.794434,10.559082,-46.264648
700,-0.637695,-0.879883,-0.449219,-40.893555,111.694336,-19.042969
701,-0.588867,-0.843262,-0.426270,-79.223633,139.831543,-23.803711
702,-0.545898,-0.794434,-0.446289,-94.177246,149.841309,-26.000977
703,-0.415527,-0.865723,-0.524902,-49.377441,115.966797,-18.981934
704,-0.355957,-0.895508,-0.491211,-3.479004,84.777832,-12.023926
705,-0.340332,-0.891113,-0.425293,35.034180,53.771973,-7.507324
706,-0.348633,-0.793457,-0.346191,56.762695,24.963379,-13.549805
707,-0.349121,-0.797852,-0.303711,54.931641,25.695801,-21.301270
708,-0.346680,-0.836914,-0.281738,52.185059,29.968262,-30.578613
709,-0.311523,-0.937012,-0.193848,63.110352,32.165527,-39.672852
710,-0.297852,-0.976562,-0.163086,68.847656,26.367188,-43.029785
711,-0.282227,-0.963867,-0.124512,75.195312,15.991211,-45.776367
712,-0.263672,-0.899902,-0.101074,73.608398,2.258301,-47.851562
713,-0.287598,-0.835449,-0.158203,46.936035,-20.019531,-51.391602
714,-0.292969,-0.784668,-0.189941,39.611816,-30.883789,-57.983398
715,-0.346680,-0.668457,-0.129395,35.339355,-49.987793,-70.007324
716,-0.416016,-0.332520,-0.328125,18.432617,-98.388672,-107.788086
717,-0.346191,-0.223145,-0.435059,5.737305,-107.543945,-117.370605
718,-0.289062,-0.302246,-0.665527,8.666992,-103.027344,-115.783691
719,-0.081055,-0.664551,-0.485840,85.815430,-70.434570,-76.049805
720,-0.152344,-0.478027,-0.387207,114.746094,-56.640625,-55.419922
721,-0.183105,-0.369629,-0.305176,141.784668,-47.241211,-30.090332
722,-0.228516,-0.411133,-0.355957,173.034668,-32.775879,-9.460449
723,-0.268555,-0.453125,-0.464844,244.262695,27.465820,20.324707
724,-0.327637,-0.459961,-0.500488,282.958984,56.457520,29.907227
725,-0.351074,-0.368164,-0.442383,328.369141,64.208984,31.188965
726,-0.440430,-0.362793,-0.305664,334.899902,44.433594,24.108887
727,-0.491699,-0.449219,-0.259766,284.851074,30.456543,22.521973
728,-0.516602,-0.646484,-0.328125,203.430176,27.648926,23.681641
729,-0.363281,-1.041992,-0.506836,65.673828,60.058594,51.696777
730,-0.356445,-1.070801,-0.396973,13.122559,73.669434,59.265137
731,-0.315430,-1.020996,-0.275879,-25.512695,76.049805,62.683105
732,-0.273438,-1.070312,-0.178711,-77.575684,67.504883,50.720215
733,-0.243164,-1.138672,0.022461,-105.651855,66.955566,46.020508
734,-0.294434,-1.190430,0.096680,-137.207031,70.434570,43.334961
735,-0.374512,-1.249512,0.093262,-185.668945,79.040527,47.607422
736,-0.435059,-1.297363,0.064941,-201.599121,83.679199,56.945801
737,-0.519531,-1.354980,0.004395,-214.843750,86.425781,70.861816
738,-0.782715,-1.585938,-0.345703,-185.546875,79.711914,85.937500
739,-0.861328,-1.550781,-0.451172,-145.568848,73.486328,82.092285
740,-0.912109,-1.426270,-0.480469,-101.928711,71.594238,75.805664
741,-0.903320,-1.008301,-0.304199,-32.409668,72.937012,68.847656
742,-0.879395,-0.876465,-0.255859,-17.333984,77.514648,55.969238
743,-0.820312,-0.750000,-0.217773,-4.760742,84.411621,38.757324
744,-0.738281,-0.540039,-0.030273,20.751953,81.420898,24.658203
745,-0.721680,-0.498047,0.077148,28.381348,65.795898,26.977539
746,-0.716797,-0.497559,0.158691,26.428223,42.541504,32.470703
747,-0.732910,-0.626465,-0.010254,-4.638672,3.540039,38.330078
748,-0.693359,-0.674316,-0.125977,-13.977051,-0.610352,39.062500
749,-0.625000,-0.713379,-0.139160,-19.348145,-0.732422,38.757324
750,-0.520996,-0.706055,-0.132812,-24.414062,-2.136230,37.475586
751,-0.315918,-0.634766,-0.143066,-27.343750,-8.789062,34.118652
752,-0.245605,-0.600586,-0.187500,-25.085449,-11.352539,30.700684
753,-0.171387,-0.532715,-0.256348,-20.263672,-7.629395,27.587891
754,-0.100586,-0.450684,-0.290039,-9.094238,12.390137,31.250000
755,-0.102051,-0.442383,-0.277344,-4.394531,20.812988,32.897949
756,-0.135742,-0.657227,-0.208984,-0.854492,20.263672,23.864746
757,-0.123047,-1.135742,-0.088867,-54.687500,-11.657715,13.793945
758,-0.109863,-1.187500,-0.562500,-188.537598,-37.475586,1.708984
759,-0.068359,-0.736328,-0.591309,-205.261230,-51.879883,-7.690430
760,-0.210449,-0.708984,-0.313477,-173.950195,-118.286133,-29.785156
761,-0.261719,-0.651367,-0.285156,-153.198242,-155.639648,-58.410645
762,-0.096680,-0.487305,-0.530762,-122.680664,-173.645020,-76.843262
763,0.119629,-0.408203,-1.100586,-5.371094,-93.933105,-70.800781
764,-0.145020,-0.301270,-0.890137,44.372559,-51.147461,-60.424805
765,-0.409180,-0.293945,-0.739746,76.477051,-33.813477,-63.537598
766,-0.625977,-0.415527,-0.607910,124.389648,-19.348145,-84.838867
767,-0.653809,-0.520020,-0.524902,125.122070,-12.634277,-90.148926
768,-0.625488,-0.669922,-0.530273,115.417480,-11.291504,-88.134766
769,-0.499512,-0.745117,-0.650879,96.313477,-7.629395,-73.669434
770,-0.685059,-1.698730,-1.473145,-121.765137,-16.357422,-24.597168
771,-0.831543,-1.510742,-1.513672,-79.589844,-79.956055,27.587891
772,-1.047363,-0.834961,-0.205078,3.295898,-119.934082,70.983887
773,-1.015137,-0.753418,-0.125488,-1.647949,-102.905273,41.076660
774,-0.819824,-0.592773,-0.034180,-23.864746,-54.992676,3.234863
775,-1.101562,-0.922852,-0.263184,-117.187500,41.015625,-16.906738
776,-1.139160,-1.203613,-0.268555,-95.703125,36.987305,-3.479004
777,-1.088867,-1.405762,-0.219727,-1.403809,-7.995605,6.713867
778,-0.749023,-1.047363,-0.130859,79.650879,-2.319336,-2.502441
779,-0.625977,-0.933594,-0.026855,55.297852,29.052734,-18.188477
780,-0.567871,-0.933105,-0.006836,26.916504,52.307129,-37.475586
781,-0.542969,-0.954590,0.021973,11.352539,63.049316,-57.067871
782,-0.522461,-0.979492,-0.026855,6.652832,60.485840,-70.068359
783,-0.490723,-1.002930,-0.051758,4.943848,53.405762,-64.086914
784,-0.451172,-1.009766,-0.111328,-2.502441,48.583984,-54.748535
785,-0.416504,-1.041992,-0.259766,-8.300781,40.649414,-37.719727
786,-0.400391,-1.001953,-0.299316,-1.403809,33.081055,-29.052734
787,-0.370117,-0.934570,-0.337891,8.422852,22.399902,-17.150879
788,-0.329102,-0.889648,-0.410156,29.602051,3.295898,4.211426
789,-0.302246,-0.827148,-0.435547,38.452148,1.281738,8.911133
790,-0.271484,-0.747559,-0.423828,43.212891,5.249023,10.620117
791,-0.244629,-0.662109,-0.446289,49.682617,26.245117,5.920410
792,-0.246582,-0.634766,-0.429199,52.856445,37.658691,0.976562
793,-0.235840,-0.617676,-0.398926,52.490234,46.325684,-4.943848
794,-0.207520,-0.533691,-0.369141,41.442871,56.945801,-11.291504
795,-0.215820,-0.485840,-0.368652,36.621094,57.373047,-8.728027
796,-0.255859,-0.450684,-0.360840,36.499023,54.687500,-4.577637
797,-0.372559,-0.389648,-0.294434,37.841797,39.794922,0.976562
798,-0.412109,-0.401367,-0.246094,32.287598,29.296875,0.793457
799,-0.411621,-0.431152,-0.208496,20.568848,17.150879,-0.427246
800,-0.392090,-0.492188,-0.187500,6.774902,3.601074,-0.854492
801,-0.331543,-0.592285,-0.219727,-15.808105,-22.888184,2.258301
802,-0.340332,-0.654297,-0.255371,-22.460938,-33.081055,6.103516
803,-0.377441,-0.755371,-0.333496,-26.428223,-45.837402,14.099121
804,-0.378906,-0.811035,-0.378418,-22.949219,-47.607422,17.272949
805,-0.351562,-0.855469,-0.407227,-18.188477,-46.142578,19.836426
806,-0.307617,-0.906250,-0.452637,-12.512207,-42.541504,22.827148
807,-0.240723,-1.006348,-0.587402,4.516602,-29.418945,31.188965
808,-0.234375,-1.103516,-0.791504,17.395020,-14.831543,33.203125
809,-0.216797,-1.251465,-1.072266,42.663574,13.732910,29.357910
810,-0.190430,-1.343750,-1.346680,106.933594,113.403320,13.244629
811,-0.235352,-1.222656,-1.101562,109.436035,160.705566,12.023926
812,-0.458496,-0.841797,-0.486328,61.645508,151.184082,37.231445
813,-0.600098,-0.757812,-0.328613,37.475586,99.304199,48.706055
814,-0.760742,-0.777832,-0.271484,11.230469,44.494629,45.654297
815,-0.846680,-0.774414,-0.271484,-27.709961,4.028320,32.897949
816,-0.757324,-0.837891,-0.432129,-136.840820,-20.996094,26.000977
817,-0.680664,-0.979492,-0.557617,-173.400879,-17.944336,27.587891
818,-0.484375,-1.198242,-0.538574,-174.255371,-25.207520,21.179199
819,-0.493652,-1.252441,-0.473633,-135.070801,-48.400879,17.272949
820,-0.664551,-1.297363,-0.561035,-89.721680,-63.842773,9.887695
821,-0.793945,-1.214355,-0.690430,-53.833008,-48.339844,6.652832
822,-0.992676,-1.105957,-0.288574,16.113281,11.779785,6.286621
823,-1.030273,-1.044434,0.070801,41.137695,19.348145,-2.380371
824,-0.963379,-0.958496,0.316406,50.781250,9.582520,-8.605957
825,-0.832031,-0.891113,0.385254,44.433594,-2.380371,-12.268066
826,-0.527832,-0.811035,0.117676,5.676270,12.695312,-20.996094
827,-0.418945,-0.752441,0.060547,-9.704590,24.841309,-26.489258
828,-0.332031,-0.637695,-0.047852,-23.254395,18.493652,-23.986816
829,-0.333008,-0.604004,-0.112305,-19.409180,4.150391,-23.193359
830,-0.294922,-0.543945,-0.148926,-9.948730,-15.258789,-22.949219
831,-0.214844,-0.497559,-0.145508,-3.967285,-43.151855,-19.409180
832,0.011719,-0.976074,-0.583008,-138.732910,-198.791504,14.953613
833,-0.046387,-0.674316,-1.262207,-199.462891,-182.617188,13.549805
834,0.003418,-0.305176,-1.039551,-190.673828,-136.352539,29.846191
835,-0.141113,-0.289062,-0.365723,-162.353516,-90.209961,47.912598
836,-0.184570,-0.286621,-0.211426,-160.400391,-78.735352,34.667969
837,-0.164062,-0.223633,-0.181152,-147.521973,-46.997070,11.840820
838,-0.151855,-0.262207,-0.299316,-122.497559,-24.108887,5.065918
839,-0.204102,-0.286621,-0.305664,-83.374023,-6.469727,-3.295898
840,-0.483887,-0.296387,-0.190430,-11.840820,-13.916016,-30.456543
841,-0.596191,-0.283691,-0.270508,16.845703,-34.729004,-43.884277
842,-0.676758,-0.302246,-0.390137,45.288086,-58.654785,-54.870605
843,-0.649414,-0.434082,-0.619629,93.933105,-97.351074,-66.589355
844,-0.616211,-0.585449,-0.702637,104.248047,-99.792480,-63.598633
845,-0.639160,-0.794922,-0.784180,106.750488,-84.350586,-63.415527
846,-0.639160,-1.013184,-0.910645,114.196777,-55.908203,-71.350098
847,-0.630371,-1.627441,-1.650391,35.461426,47.119141,-66.894531
848,-0.541504,-1.922852,-1.807617,11.413574,96.679688,-51.635742
849,-0.905762,-0.770996,-0.121582,78.430176,-34.851074,40.039062
850,-1.077148,-0.539551,-0.007812,59.631348,-87.768555,54.870605
851,-0.995605,-0.454102,-0.135742,13.610840,-94.909668,41.625977
852,-0.682617,-0.363770,-0.605957,-78.613281,-4.333496,-4.333496
853,-0.691406,-0.383789,-0.519043,-106.567383,41.503906,-5.187988
854,-0.941895,-0.866699,-0.568848,-124.267578,41.320801,6.958008
855,-0.923340,-1.178711,-0.636230,-59.143066,-0.305176,10.986328
856,-0.778809,-1.000977,-0.359863,126.342773,-23.864746,-0.244141
857,-0.737305,-0.951660,-0.177246,144.409180,-0.427246,-19.775391
858,-0.705566,-0.918457,-0.085449,130.249023,27.526855,-43.518066
859,-0.610352,-0.923828,-0.020508,78.857422,73.425293,-71.655273
860,-0.503418,-0.908691,0.023438,70.251465,81.054688,-77.575684
861,-0.402832,-0.843262,0.075684,63.171387,79.895020,-76.293945
862,-0.336426,-0.839844,0.138672,32.592773,62.072754,-67.749023
863,-0.349121,-0.873535,0.069336,11.901855,53.894043,-67.687988
864,-0.351562,-0.879395,0.011230,-6.713867,47.607422,-68.542480
865,-0.386719,-1.039062,-0.146484,-15.319824,34.301758,-61.584473
866,-0.375977,-1.143066,-0.170898,0.915527,21.301270,-57.983398
867,-0.202637,-1.085938,-0.134277,24.536133,-9.521484,-38.696289
868,-0.156738,-1.003418,-0.176758,19.226074,-18.737793,-20.629883
869,-0.170898,-0.914062,-0.285645,11.230469,-19.653320,-7.995605
870,-0.229492,-0.865234,-0.418945,11.169434,-13.000488,-4.211426
871,-0.277832,-0.704102,-0.708984,55.297852,23.437500,-7.080078
872,-0.259277,-0.622559,-0.697754,79.406738,49.987793,-8.239746
873,-0.261230,-0.468262,-0.537109,87.768555,87.158203,2.624512
874,-0.319336,-0.438477,-0.521484,85.876465,92.346191,10.559082
875,-0.362793,-0.404785,-0.486816,86.853027,92.163086,15.991211
876,-0.398438,-0.386230,-0.415039,69.763184,75.500488,22.705078
877,-0.447754,-0.403809,-0.289062,50.354004,63.171387,23.803711
878,-0.447754,-0.439453,-0.240234,25.085449,49.987793,24.597168
879,-0.427246,-0.501465,-0.204590,-0.671387,35.156250,26.123047
880,-0.357910,-0.658203,-0.272461,-36.010742,7.751465,29.235840
881,-0.347656,-0.728027,-0.303711,-43.334961,-1.647949,30.883789
882,-0.337402,-0.852051,-0.296875,-49.377441,-18.737793,28.076172
883,-0.322754,-0.912109,-0.276855,-52.062988,-31.066895,23.315430
884,-0.225586,-1.025879,-0.414551,-56.213379,-59.082031,16.113281
885,-0.157227,-1.071289,-0.645020,-46.264648,-60.302734,16.174316
886,-0.091309,-1.141113,-0.912109,-22.949219,-43.090820,20.263672
887,-0.030762,-0.779785,-1.365723,46.691895,57.128906,69.763184
888,-0.394043,-0.851074,-1.440430,80.383301,130.920410,103.637695
889,-0.661133,-0.833496,-0.996582,87.219238,187.805176,117.553711
890,-0.964844,-1.255859,-0.361816,37.048340,198.120117,85.632324
891,-0.912109,-1.417480,-0.012695,-3.479004,156.799316,28.747559
892,-0.708008,-1.262207,0.326660,-60.302734,83.923340,-13.000488
893,-0.551758,-0.979492,-0.027344,-154.724121,-72.082520,-24.353027
894,-0.609863,-1.015625,-0.311523,-158.874512,-109.130859,-24.719238
895,-0.615234,-1.057617,-0.378418,-147.827148,-127.319336,-26.855469
896,-0.607422,-1.270020,-0.500488,-106.933594,-157.958984,-23.620605
897,-0.638184,-1.276855,-0.928711,-80.200195,-133.422852,-20.751953
898,-0.599121,-1.048340,-1.069336,-62.866211,-60.180664,-6.652832
899,-0.576172,-0.846191,-0.710938,-60.363770,11.291504,15.075684
900,-0.649902,-0.727051,0.033203,-56.335449,33.691406,17.028809
901,-0.667480,-0.723633,0.170410,-47.607422,7.324219,9.033203
902,-0.655762,-0.691406,0.275391,-40.100098,-23.559570,-0.549316
903,-0.594727,-0.680176,0.119141,-26.367188,-73.181152,3.723145
904,-0.549805,-0.699707,-0.094238,-13.305664,-71.289062,7.751465
905,-0.460449,-0.716309,-0.327148,3.662109,-53.405762,9.399414
906,-0.226562,-0.728516,-0.622559,46.264648,9.094238,16.845703
907,-0.081543,-0.863281,-0.624023,70.983887,-8.117676,25.939941
908,0.030273,-1.261719,-2.046875,69.030762,-86.425781,29.968262
909,-0.204590,-1.121582,-1.557617,0.915527,-30.212402,20.996094
910,-0.431641,-0.691406,-0.299805,-95.458984,-8.056641,-11.962891
911,-0.450195,-0.521973,-0.038574,-132.446289,-32.958984,-16.540527
912,-0.459473,-0.419434,-0.030762,-146.545410,-71.289062,-23.986816
913,-0.420410,-0.351074,-0.176758,-129.516602,-61.218262,-25.756836
914,-0.428711,-0.378906,-0.263184,-94.787598,-35.644531,-29.785156
915,-0.414551,-0.387695,-0.211426,-54.809570,-4.394531,-46.081543
916,-0.108887,-0.188965,0.252930,-17.700195,4.150391,-59.509277
917,-0.056641,-0.197266,0.068848,-19.287109,-2.807617,-59.020996
918,-0.031250,-0.085938,-0.363770,0.915527,8.850098,-45.349121
919,-0.202148,-0.076660,-0.437988,42.358398,30.273438,-31.250000
920,-0.345215,-0.098633,-0.433105,97.961426,50.354004,-16.174316
921,-0.352539,-0.191406,-0.457031,117.187500,51.025391,-12.634277
922,-0.427246,-0.454102,-0.489258,143.249512,22.766113,-13.732910
923,-0.410156,-0.625488,-0.622559,146.850586,-5.126953,-16.540527
924,-0.379883,-0.863770,-0.999512,141.723633,-30.944824,-14.221191
925,-0.353516,-1.256836,-1.597656,142.028809,-29.357910,-7.812500
926,-0.218262,-2.110352,-1.704102,135.253906,133.239746,-27.160645
927,-0.288574,-1.736328,-0.726074,124.816895,171.569824,-25.512695
928,-0.464844,-1.385742,-0.084961,93.322754,132.263184,-22.460938
929,-1.126465,-0.661133,0.163574,32.470703,-37.658691,10.803223
930,-1.102051,-0.377930,0.120605,6.774902,-92.041016,11.535645
931,-0.828613,-0.288574,0.058105,-33.264160,-114.501953,-3.906250
932,-0.334961,-0.472168,-0.478027,-93.505859,-64.147949,-50.415039
933,-0.229004,-0.595215,-0.702148,-86.303711,-14.221191,-58.166504
934,-0.363770,-0.948242,-1.195312,-101.684570,32.287598,-44.067383
935,-0.217773,-2.240723,-0.912109,123.291016,-12.329102,-27.038574
936,-0.269531,-1.349609,0.005859,234.191895,-23.315430,-17.761230
937,-0.863281,-0.983887,0.373535,118.041992,-2.075195,-15.319824
938,-0.923828,-0.898438,0.151367,52.124023,12.939453,-31.372070
939,-0.909180,-0.859375,0.011719,14.282227,32.043457,-51.513672
940,-0.673828,-0.869629,-0.019531,-10.803223,55.969238,-87.585449
941,-0.517578,-0.863770,-0.029297,-14.343262,57.800293,-95.642090
942,-0.439941,-0.963379,-0.060059,-13.366699,59.997559,-104.431152
943,-0.314453,-0.904785,-0.067383,9.582520,58.715820,-108.825684
944,-0.195801,-0.801758,-0.077148,19.836426,52.734375,-98.083496
945,-0.127930,-0.744629,0.015625,30.273438,35.034180,-76.232910
946,-0.119629,-0.714844,0.006348,38.940430,-9.582520,-29.174805
947,-0.161621,-0.904785,-0.310059,54.931641,-15.441895,-17.944336
948,-0.170410,-1.030762,-0.489746,73.425293,-0.976562,-14.404297
949,-0.094238,-0.994141,-0.581543,81.787109,64.941406,-9.948730
950,-0.082520,-0.918945,-0.549316,71.411133,92.651367,0.671387
951,-0.078613,-0.837402,-0.481445,59.692383,109.741211,10.314941
952,-0.042969,-0.626953,-0.311523,55.053711,96.191406,21.179199
953,-0.042969,-0.577148,-0.278320,62.622070,75.500488,25.878906
954,-0.059570,-0.547852,-0.273438,69.396973,55.480957,30.517578
955,-0.086914,-0.532227,-0.279297,70.312500,42.846680,37.048340
956,-0.187500,-0.580078,-0.243652,55.053711,36.254883,40.405273
957,-0.225586,-0.603516,-0.177734,42.114258,30.029297,37.841797
958,-0.258789,-0.610840,-0.134277,26.123047,19.348145,36.010742
959,-0.345215,-0.683594,-0.099609,2.746582,-8.117676,39.062500
960,-0.363281,-0.736328,-0.062988,-2.075195,-23.864746,37.536621
961,-0.278320,-0.811035,0.007324,-15.625000,-55.053711,28.991699
962,-0.213379,-0.825195,-0.048340,-27.038574,-61.096191,31.066895
963,-0.176758,-0.899902,-0.111328,-42.053223,-46.325684,35.095215
964,-0.147949,-1.119629,-0.237305,-45.715332,-29.113770,32.531738
965,-0.135742,-1.214355,-0.298828,-46.325684,-10.681152,25.817871
966,-0.113770,-1.278809,-0.423340,-44.006348,8.117676,18.493652
967,-0.044434,-1.452637,-0.963379,-12.634277,72.814941,3.479004
968,0.019043,-1.456543,-1.117676,17.150879,118.164062,-2.685547
969,0.020996,-1.426758,-1.121094,41.137695,161.743164,-1.525879
970,-0.227539,-1.160645,-0.744141,57.800293,192.504883,19.897461
971,-0.415527,-1.097168,-0.556152,54.748535,170.898438,25.695801
972,-0.520996,-1.004883,-0.373047,45.532227,131.835938,25.207520
973,-0.564941,-0.895508,-0.236816,20.141602,89.599609,23.193359
974,-0.551758,-0.836914,-0.103516,-62.866211,24.475098,25.695801
975,-0.524414,-0.841797,-0.092285,-106.079102,3.662109,31.616211
976,-0.531250,-0.965820,-0.151367,-151.062012,-25.634766,48.828125
977,-0.581055,-1.079590,-0.132812,-150.268555,-40.771484,47.546387
978,-0.628906,-1.148438,-0.136230,-137.207031,-56.274414,38.574219
979,-0.690918,-1.165527,-0.145996,-116.149902,-68.115234,27.709961
980,-0.838867,-1.063965,-0.064941,-67.504883,-83.496094,16.235352
981,-0.854492,-0.960938,0.079590,-47.180176,-94.726562,15.563965
982,-0.803711,-0.864258,0.181641,-32.836914,-107.666016,15.319824
983,-0.591309,-0.829590,0.055176,-25.329590,-106.811523,5.676270
984,-0.453125,-0.822754,-0.092773,-27.099609,-79.162598,-3.845215
985,-0.329590,-0.816895,-0.139648,-34.790039,-43.823242,-11.169434
986,-0.265137,-0.875000,-0.145996,-52.612305,-6.896973,-19.897461
987,-0.152832,-0.862793,-0.289062,-50.903320,-23.986816,-15.075684
988,-0.011719,-0.888184,-0.232910,-52.246094,-72.448730,-2.563477
989,0.037109,-1.101074,-0.595215,-85.632324,-129.455566,8.056641
990,-0.036621,-0.785156,-1.256836,-170.288086,-80.200195,-5.126953
991,-0.087891,-0.537109,-1.044922,-180.541992,-23.620605,5.615234
992,-0.233398,-0.446777,-0.688477,-178.222656,6.713867,17.395020
993,-0.279297,-0.373047,-0.052246,-173.583984,7.751465,2.441406
994,-0.214844,-0.302734,0.045410,-179.565430,-7.141113,-6.591797
995,-0.035645,-0.167969,-0.241211,-130.065918,-9.704590,-6.225586
996,0.002930,-0.187500,-0.194336,-79.956055,0.183105,2.746582
997,0.000977,-0.226074,-0.196289,-37.109375,6.896973,6.774902
998,-0.161133,-0.273926,-0.343750,33.447266,27.893066,2.258301
999,-0.242188,-0.299805,-0.386719,60.363770,33.325195,-4.272461
1000,-0.308594,-0.349121,-0.373047,86.425781,27.954102,-11.596680
1001,-0.371582,-0.442871,-0.366211,109.680176,9.094238,-22.277832
1002,-0.433594,-0.598633,-0.523926,145.507812,-43.945312,-52.307129
1003,-0.418945,-0.702148,-0.639648,151.000977,-59.631348,-53.283691
1004,-0.433105,-0.917969,-0.793457,142.272949,-67.382812,-47.607422
1005,-0.177734,-1.520996,-1.510742,93.505859,-35.705566,-34.606934
1006,0.036621,-1.841309,-2.190430,74.157715,24.597168,-24.719238
1007,-0.270996,-1.807617,-1.955566,53.466797,79.895020,0.915527
1008,-1.070312,-0.755371,-0.199707,65.612793,-17.211914,41.381836
1009,-1.004883,-0.431641,-0.003906,39.123535,-59.020996,29.602051
1010,-0.748535,-0.395996,-0.194824,-4.760742,-56.579590,8.300781
1011,-0.517090,-0.428711,-0.269531,-33.203125,-21.240234,-21.057129
1012,-0.377930,-0.661621,-0.126465,-60.119629,37.109375,-57.617188
1013,-0.523438,-0.960938,-0.087402,-77.087402,25.939941,-42.175293
1014,-0.584961,-2.212891,-0.883789,52.062988,-74.768066,2.502441
1015,-0.524414,-1.846680,-0.162598,105.651855,-69.396973,-15.380859
1016,-0.417480,-1.471191,0.028320,90.515137,-56.640625,-27.526855
1017,-0.389648,-1.242676,-0.095703,65.795898,-29.357910,-36.865234
1018,-0.385742,-0.806641,-0.130859,50.476074,18.981934,-63.354492
1019,-0.425293,-0.780273,-0.170898,58.959961,30.761719,-74.218750
1020,-0.446777,-0.827148,-0.262695,80.566406,40.283203,-81.909180
1021,-0.422363,-0.839355,-0.347168,109.741211,53.527832,-86.975098
1022,-0.281250,-0.820801,-0.321777,133.422852,92.956543,-76.477051
1023,-0.176270,-0.723145,-0.232910,119.262695,112.854004,-60.729980
1024,-0.053223,-0.546387,0.028809,55.725098,119.384766,4.577637
1025,-0.154785,-0.674316,0.072266,38.696289,92.712402,33.691406
1026,-0.281738,-0.847168,0.100586,41.687012,49.011230,44.189453
1027,-0.349121,-0.968750,0.079102,60.058594,1.708984,40.771484
1028,-0.333984,-0.997070,-0.119141,86.059570,-39.489746,19.836426
1029,-0.312012,-0.895996,-0.168945,81.481934,-27.282715,18.249512
1030,-0.301270,-0.834473,-0.183594,72.204590,-6.958008,19.592285
1031,-0.288574,-0.755371,-0.115234,60.852051,10.437012,9.277344
1032,-0.231445,-0.647949,-0.170410,49.621582,11.718750,3.540039
1033,-0.221680,-0.598145,-0.296387,39.855957,18.188477,6.286621
1034,-0.267578,-0.762207,-0.331055,29.541016,44.067383,-5.126953
1035,-0.253906,-0.719238,-0.289062,19.348145,49.438477,-9.460449
1036,-0.344727,-0.713867,-0.353516,5.310059,52.673340,0.488281
1037,-0.389648,-0.711426,-0.309082,5.737305,50.720215,5.004883
1038,-0.379883,-0.784668,-0.247559,2.319336,38.696289,0.610352
1039,-0.303711,-0.825684,-0.236816,-5.493164,34.240723,-5.249023
1040,-0.179199,-0.803711,-0.266602,-14.587402,31.616211,-7.141113
1041,-0.023926,-0.883789,-0.313477,-14.099121,24.475098,4.943848
1042,0.014648,-0.982422,-0.359863,-6.713867,20.080566,8.789062
1043,0.036133,-1.045898,-0.419434,0.793457,18.737793,10.925293
1044,0.045898,-1.099609,-0.515625,7.690430,22.644043,14.221191
1045,0.044922,-1.229492,-0.694824,18.432617,51.208496,14.282227
1046,0.041992,-1.261230,-0.741211,20.568848,72.021484,12.512207
1047,0.024414,-1.198242,-0.695312,18.554688,90.087891,15.930176
1048,-0.204590,-0.992188,-0.386230,-14.343262,96.618652,37.597656
1049,-0.366211,-0.892090,-0.208984,-44.189453,78.247070,49.316406
1050,-0.538574,-0.912598,-0.128906,-72.692871,49.560547,52.978516
1051,-0.749023,-0.998047,-0.068359,-131.774902,-1.953125,48.034668
1052,-0.810059,-1.109863,-0.057617,-170.227051,-18.615723,46.691895
1053,-0.801270,-1.198242,-0.097656,-204.772949,-31.372070,42.419434
1054,-0.792969,-1.401367,0.030273,-256.469727,-66.040039,31.005859
1055,-0.752930,-1.468750,-0.037598,-274.291992,-88.562012,4.943848
1056,-0.607422,-1.347168,-0.226074,-259.826660,-111.389160,-18.310547
1057,-0.449707,-1.063965,-0.630371,-132.385254,-109.985352,-28.869629
1058,-0.429688,-0.953125,-0.551270,-74.340820,-83.129883,-15.014648
1059,-0.422363,-0.897949,-0.375000,-38.146973,-52.612305,-1.037598
1060,-0.400879,-0.864746,-0.186035,-19.042969,-30.578613,4.028320
1061,-0.326660,-0.760254,-0.133789,-1.159668,-6.530762,3.051758
1062,-0.331543,-0.769043,-0.231445,7.934570,3.784180,3.967285
1063,-0.348633,-0.776367,-0.301270,27.282715,20.141602,0.854492
1064,-0.356934,-0.770996,-0.275879,26.000977,15.380859,-4.272461
1065,-0.286621,-0.801270,-0.257812,23.803711,-6.347656,-9.643555
1066,-0.036133,-0.899414,-0.051758,-3.723145,-95.703125,-5.249023
1067,0.037109,-0.756836,-1.298828,-68.969727,-158.630371,-8.911133
1068,0.026367,-0.567871,-1.369629,-108.032227,-100.769043,2.014160
1069,-0.061523,-0.350098,-1.015625,-138.732910,-37.719727,22.583008
1070,-0.197266,-0.285156,-0.176758,-194.641113,3.540039,48.645020
1071,-0.185547,-0.349121,-0.026855,-219.909668,-2.380371,41.381836
1072,-0.120605,-0.374023,-0.057617,-223.754883,-8.972168,29.052734
1073,-0.043945,-0.395508,-0.156250,-144.104004,-10.925293,20.507812
1074,-0.061523,-0.370605,-0.116211,-87.158203,-12.512207,18.310547
1075,-0.114258,-0.321777,-0.140137,-35.339355,-13.244629,14.831543
1076,-0.242676,-0.286621,-0.284180,37.780762,1.098633,-0.976562
1077,-0.293457,-0.319824,-0.324707,63.537598,2.258301,-13.732910
1078,-0.335449,-0.355469,-0.369141,89.233398,-9.338379,-28.747559
1079,-0.426270,-0.445801,-0.497070,142.089844,-50.964355,-62.744141
1080,-0.394043,-0.495117,-0.586426,158.874512,-63.354492,-71.105957
1081,-0.380371,-0.622559,-0.681641,165.771484,-68.908691,-70.190430
1082,-0.367676,-0.806641,-0.826172,155.395508,-70.861816,-66.528320
1083,0.039062,-1.618652,-1.955078,69.396973,-25.817871,-37.475586
1084,-0.199707,-2.144043,-2.451660,48.583984,35.827637,-12.084961
1085,-0.647461,-1.656250,-1.449707,72.875977,55.114746,28.320312
1086,-1.124512,-0.621094,0.223633,105.773926,-79.589844,59.082031
1087,-1.094727,-0.423340,0.034668,52.917480,-98.571777,44.006348
1088,-1.000977,-0.392578,-0.344238,0.366211,-62.500000,12.512207
1089,-0.616699,-0.481445,-0.698242,-35.705566,64.331055,-47.912598
1090,-0.645996,-0.660156,-0.480469,-61.706543,82.763672,-35.400391
1091,-0.721191,-1.177734,-0.542969,-122.863770,30.090332,12.512207
1092,-0.503906,-1.304688,-0.425293,116.760254,-46.508789,20.629883
1093,-0.631836,-1.022461,0.261719,162.780762,-50.354004,29.052734
1094,-0.688965,-0.901855,0.573730,137.817383,-56.823730,19.470215
1095,-0.685547,-0.868652,0.238281,56.701660,-34.118652,-18.798828
1096,-0.672852,-0.791016,0.108887,34.057617,-12.695312,-26.550293
1097,-0.649414,-0.740234,0.047363,14.831543,4.455566,-30.944824
1098,-0.632812,-0.753418,0.029297,0.000000,12.451172,-36.132812
1099,-0.567383,-0.974609,-0.159180,-2.258301,14.404297,-56.640625
1100,-0.483887,-1.021484,-0.268066,7.263184,21.850586,-71.899414
1101,-0.396973,-1.010742,-0.276367,12.695312,33.264160,-78.063965
1102,-0.321289,-0.989258,-0.306641,10.498047,48.034668,-60.363770
1103,-0.301758,-1.002930,-0.231445,4.455566,45.288086,-45.532227
1104,-0.285645,-0.994629,-0.197266,-6.103516,32.409668,-32.836914
1105,-0.284180,-0.989258,-0.251953,-14.892578,16.540527,-23.986816
1106,-0.241699,-0.846191,-0.523438,7.446289,-3.295898,-15.686035
1107,-0.199707,-0.776367,-0.642578,30.029297,0.488281,-14.648438
1108,-0.136719,-0.666992,-0.669922,67.077637,24.230957,-7.995605
1109,-0.109375,-0.639160,-0.630371,70.678711,37.353516,-8.117676
1110,-0.095215,-0.590332,-0.577148,62.377930,49.499512,-7.690430
1111,-0.109375,-0.473145,-0.495117,47.729492,56.335449,0.305176
1112,-0.324219,-0.282227,-0.440430,26.062012,55.603027,36.499023
1113,-0.444336,-0.304688,-0.397949,23.925781,55.603027,49.255371
1114,-0.536621,-0.327148,-0.341309,17.639160,53.771973,52.185059
1115,-0.651855,-0.403809,-0.237305,-14.282227,42.541504,46.508789
1116,-0.666016,-0.492188,-0.178223,-35.339355,30.334473,45.898438
1117,-0.728027,-0.650391,0.023926,-60.546875,5.432129,39.062500
1118,-0.789551,-0.921387,0.266602,-123.657227,-92.407227,-6.103516
1119,-0.639160,-0.857422,0.056152,-146.118164,-143.859863,-23.254395
1120,-0.505371,-0.857910,-0.337402,-144.958496,-169.677734,-22.766113
1121,-0.391113,-0.929199,-0.623047,-123.779297,-165.710449,-20.263672
1122,-0.090332,-0.987305,-0.941406,-52.551270,-114.868164,-4.699707
1123,0.020996,-0.979492,-1.085938,-21.301270,-72.570801,14.221191
1124,0.080078,-1.036133,-1.102051,10.620117,-29.235840,31.921387
1125,0.202148,-1.067383,-1.094727,71.533203,47.607422,60.974121
1126,0.090332,-1.044922,-1.016113,73.242188,93.444824,71.838379
1127,-0.111328,-1.008301,-0.884766,54.626465,134.460449,77.697754
1128,-0.514160,-0.968262,-0.559570,6.286621,149.536133,77.758789
1129,-0.665527,-0.984863,-0.366211,-11.230469,120.178223,67.687988
1130,-0.798340,-1.052734,-0.165039,-29.174805,68.847656,50.598145
1131,-0.988770,-1.206543,0.160156,-66.162109,-76.721191,-0.305176
1132,-1.016113,-1.269531,0.106445,-86.364746,-146.179199,-20.507812
1133,-1.019531,-1.339844,-0.115723,-106.140137,-188.171387,-38.879395
1134,-0.723633,-1.063477,-0.739746,-90.270996,-168.640137,-49.621582
1135,-0.617188,-0.875977,-0.793945,-62.622070,-114.562988,-36.804199
1136,-0.576660,-0.835938,-0.509277,-43.701172,-66.223145,-29.541016
1137,-0.574707,-0.804199,-0.161621,-27.038574,-26.489258,-34.851074
1138,-0.564453,-0.806152,-0.115723,-13.610840,-24.414062,-42.724609
1139,-0.486328,-0.748535,-0.480469,50.170898,-33.935547,-47.851562
1140,-0.400391,-0.655273,-1.390137,119.689941,-28.381348,-29.052734
1141,-0.354492,-0.871582,-1.824219,111.694336,-9.887695,-12.512207
1142,-0.240234,-0.923828,-0.979004,-12.207031,67.382812,-9.765625
1143,-0.356445,-0.767578,-0.195801,-119.873047,35.766602,0.183105
1144,-0.485352,-0.798340,-0.157715,-148.498535,14.221191,-3.479004
1145,-0.489258,-0.731934,-0.165527,-170.898438,3.295898,-4.455566
1146,-0.278809,-0.514648,-0.165527,-187.194824,-0.732422,26.062012
1147,-0.199219,-0.484863,-0.163086,-176.147461,-5.126953,41.687012
1148,-0.141113,-0.409180,-0.151367,-163.574219,-9.033203,54.260254
1149,-0.145020,-0.392578,-0.223145,-132.995605,-16.357422,54.870605
1150,-0.136230,-0.320801,-0.279297,-108.398438,-12.451172,45.288086
1151,-0.141602,-0.237305,-0.240234,-84.045410,-5.065918,35.034180
1152,-0.171387,-0.175293,-0.200195,-66.406250,2.685547,27.587891
1153,-0.238281,-0.183105,-0.242188,-35.034180,20.324707,7.995605
1154,-0.260742,-0.237305,-0.337402,-10.375977,32.775879,-4.455566
1155,-0.289062,-0.226074,-0.411621,18.005371,48.217773,-17.578125
1156,-0.404785,-0.289551,-0.577148,81.298828,72.143555,-46.447754
1157,-0.488770,-0.250977,-0.618652,116.455078,71.411133,-60.546875
1158,-0.578613,-0.313965,-0.630371,146.423340,64.025879,-71.960449
1159,-0.517090,-0.462402,-0.836914,183.105469,44.311523,-90.637207
1160,-0.402344,-0.625488,-1.012695,193.603516,37.780762,-89.233398
1161,0.068848,-0.983887,-1.168457,189.697266,9.338379,-54.016113
1162,0.149902,-1.738770,-1.558594,152.282715,25.451660,-28.686523
1163,-0.005371,-2.053711,-1.677246,97.595215,81.726074,-22.827148
1164,-0.514648,-1.416016,-0.368164,65.490723,62.438965,14.648438
1165,-1.336914,-0.488281,0.382324,18.127441,-153.015137,88.195801
1166,-1.256836,-0.450195,0.086914,-62.927246,-169.433594,73.181152
1167,-0.860840,-0.476074,-0.372559,-131.469727,-130.004883,37.170410
1168,-0.612305,-0.721191,-0.784180,-130.310059,-82.580566,0.488281
1169,-0.742188,-1.544922,-1.762695,-131.225586,49.987793,-59.997559
1170,-0.503418,-1.818848,-0.813965,-71.838379,45.715332,-60.607910
1171,-0.302246,-1.040039,0.303711,76.843262,-101.440430,-4.882812
1172,-0.625488,-1.058105,0.123047,39.916992,-95.642090,6.713867
1173,-0.700195,-0.895508,0.132812,6.652832,-72.937012,-14.892578
1174,-0.649902,-0.722656,0.102051,-3.051758,-60.607910,-43.029785
1175,-0.610352,-0.659180,-0.123047,32.958984,-43.457031,-90.087891
1176,-0.571289,-0.707520,-0.189453,62.377930,-29.663086,-103.698730
1177,-0.484863,-0.761230,-0.212402,99.670410,-18.920898,-112.243652
1178,-0.354004,-0.858398,-0.166992,147.705078,10.498047,-125.305176
1179,-0.308105,-0.884766,-0.197754,150.085449,27.526855,-130.554199
1180,-0.236816,-0.864746,-0.349609,127.746582,57.922363,-128.601074
1181,-0.134277,-0.776855,-0.555664,107.116699,94.848633,-98.693848
1182,-0.246094,-1.225098,-0.546875,83.496094,121.887207,-18.188477
1183,-0.289551,-1.429688,-0.493164,63.354492,104.248047,-10.253906
1184,-0.109375,-1.018066,-0.649902,3.051758,96.374512,-15.991211
1185,-0.080566,-0.855469,-0.610352,-18.676758,107.360840,-13.793945
1186,-0.041016,-0.729492,-0.460938,-50.598145,110.839844,-1.464844
1187,-0.006836,-0.647461,-0.257324,-58.898926,103.637695,4.089355
1188,0.003418,-0.597656,-0.301270,-60.485840,97.290039,10.070801
1189,-0.056641,-0.583496,-0.353516,-52.246094,96.313477,18.188477
1190,-0.235352,-0.522461,-0.378418,-38.818359,105.468750,26.916504
1191,-0.233398,-0.477051,-0.385742,-35.644531,106.506348,30.334473
1192,-0.198730,-0.456543,-0.385742,-32.836914,105.651855,36.376953
1193,-0.166504,-0.500000,-0.348145,-24.414062,89.294434,48.645020
1194,-0.161133,-0.548828,-0.331543,-13.122559,71.594238,54.565430
1195,-0.175293,-0.587402,-0.299316,-1.037598,51.818848,59.692383
1196,-0.224609,-0.637207,-0.207520,17.822266,2.807617,75.683594
1197,-0.221191,-0.680664,-0.213867,22.155762,-21.301270,79.711914
1198,-0.205566,-0.728516,-0.222168,20.996094,-39.916992,82.397461
1199,-0.200195,-0.791016,-0.249512,14.160156,-52.612305,82.092285
1200,-0.195312,-0.908691,-0.295410,-15.197754,-65.551758,69.580078
1201,-0.183594,-0.851074,-0.398438,-26.367188,-69.396973,66.833496
1202,-0.301270,-0.981445,-0.762695,-0.976562,-65.368652,77.697754
1203,-0.373535,-1.175293,-1.013672,39.916992,-57.373047,72.692871
1204,-0.386230,-1.408691,-1.301270,84.289551,-25.817871,54.016113
1205,-0.289551,-1.171875,-1.114746,119.201660,66.833496,47.851562
1206,-0.402344,-1.127930,-0.877441,90.942383,98.022461,62.133789
1207,-0.529297,-1.174805,-0.634277,45.288086,105.651855,67.810059
1208,-0.672363,-1.147949,-0.358887,-39.794922,55.175781,48.706055
1209,-0.682617,-1.103027,-0.296387,-73.120117,16.357422,40.466309
1210,-0.669434,-1.104004,-0.292969,-108.703613,-14.587402,35.888672
1211,-0.495117,-1.251953,-0.436035,-155.456543,-46.813965,28.320312
1212,-0.386719,-1.206543,-0.527832,-148.193359,-56.457520,28.503418
1213,-0.424316,-1.084473,-0.716309,-121.093750,-48.034668,32.714844
1214,-0.509766,-0.900879,-0.697754,-96.130371,-22.094727,47.729492
1215,-0.788086,-0.865234,-0.405273,-71.411133,26.123047,53.771973
1216,-0.883301,-0.912598,-0.266602,-62.866211,34.912109,41.320801
1217,-0.854980,-0.809082,0.154785,-65.856934,9.460449,-3.417969
1218,-0.762207,-0.721191,0.145508,-75.744629,-19.531250,-16.967773
1219,-0.640625,-0.698242,-0.152832,-68.054199,-37.658691,-21.911621
1220,-0.520508,-0.700195,-0.391113,-35.644531,-35.522461,-21.240234
1221,-0.323730,-0.693359,-0.440918,19.165039,-2.258301,-10.253906
1222,-0.289062,-0.710449,-0.430176,27.282715,14.282227,-4.211426
1223,-0.257324,-0.654785,-0.437988,41.015625,31.860352,4.577637
1224,-0.239258,-0.621094,-0.371094,50.231934,33.691406,5.615234
1225,-0.208496,-0.577637,-0.291016,52.185059,33.020020,3.173828
1226,-0.170410,-0.568848,-0.217285,42.846680,26.611328,-2.685547
1227,-0.138672,-0.517090,-0.157715,6.896973,-19.287109,-19.104004
1228,-0.124023,-0.482422,-0.076172,-32.592773,-70.129395,-21.057129
1229,-0.084961,-0.608398,-0.644043,-79.162598,-121.215820,-17.822266
1230,0.000000,-0.517090,-0.883301,-90.515137,-109.436035,-19.348145
1231,0.057129,-0.302246,-0.440430,-68.908691,-61.035156,-9.399414
1232,0.033203,-0.280762,-0.250488,-49.499512,-59.875488,-12.573242
1233,-0.005859,-0.263184,-0.151367,-34.118652,-67.138672,-17.822266
1234,-0.138672,-0.327148,-0.178223,-16.662598,-66.162109,-34.240723
1235,-0.213379,-0.372559,-0.176758,-16.235352,-56.701660,-45.288086
1236,-0.293457,-0.412598,-0.169922,-18.859863,-50.720215,-56.884766
1237,-0.425781,-0.535156,-0.291016,-21.179199,-51.269531,-75.866699
1238,-0.488281,-0.615723,-0.387695,-14.831543,-56.640625,-84.960938
1239,-0.538574,-0.690918,-0.455078,1.525879,-72.082520,-93.261719
1240,-0.552246,-0.802246,-0.600586,36.865234,-130.310059,-84.655762
1241,-0.551758,-0.914551,-0.786621,44.433594,-161.499023,-68.176270
1242,-0.397461,-1.185547,-1.155273,15.686035,-176.452637,-52.246094
1243,-0.588379,-1.684570,-2.243164,-59.020996,-67.687988,-29.663086
1244,-0.975098,-1.002441,-0.888672,35.644531,-68.420410,21.606445
1245,-1.338379,-0.619629,-0.091797,97.290039,-88.134766,45.776367
1246,-1.720215,-0.375488,0.367188,67.871094,-76.110840,54.138184
1247,-1.492676,-0.566895,0.125488,-30.090332,-60.241699,32.958984
1248,-1.078613,-0.873535,-0.713379,-147.277832,-35.095215,23.681641
1249,-0.848633,-1.121582,-1.074219,-214.904785,1.342773,48.156738
1250,-0.728027,-0.769043,-0.270508,-61.279297,14.526367,44.616699
1251,-0.704102,-0.567383,0.035156,6.164551,10.559082,37.475586
1252,-0.633301,-0.587891,0.026367,40.283203,15.014648,19.897461
1253,-0.545410,-0.649902,-0.090820,111.267090,51.757812,-37.902832
1254,-0.536133,-0.716309,-0.216309,144.836426,82.336426,-62.072754
1255,-0.585449,-0.815430,-0.160645,169.555664,108.886719,-82.702637
1256,-0.543945,-1.051758,-0.019531,211.914062,125.244141,-112.365723
1257,-0.475586,-1.132324,0.090820,203.125000,122.009277,-111.938477
1258,-0.392578,-1.202148,0.159180,161.743164,119.689941,-102.111816
1259,-0.313477,-1.239258,0.170898,96.008301,117.797852,-84.716797
1260,-0.264160,-1.193359,-0.032227,-29.724121,102.233887,-47.668457
1261,-0.312500,-1.087402,-0.358398,-50.842285,75.988770,-17.150879
1262,-0.303711,-1.021973,-0.356934,-28.015137,58.837891,-10.437012
1263,-0.246582,-0.906250,-0.244629,23.315430,1.647949,2.197266
1264,-0.210938,-0.700195,-0.066895,36.437988,-31.677246,3.784180
1265,-0.239746,-0.701660,-0.297363,41.198730,-44.189453,-3.540039
1266,-0.196777,-0.683594,-0.472656,41.015625,-27.343750,-13.671875
1267,-0.070312,-0.585938,-0.584473,33.081055,25.085449,-19.958496
1268,-0.077637,-0.511230,-0.554688,34.973145,40.893555,-12.207031
1269,-0.125977,-0.451660,-0.522461,37.536621,49.072266,-2.807617
1270,-0.260742,-0.375488,-0.448242,35.644531,52.185059,16.052246
1271,-0.335449,-0.374512,-0.458008,30.090332,53.771973,22.827148
1272,-0.382812,-0.367676,-0.441406,24.169922,56.213379,27.954102
1273,-0.421387,-0.362305,-0.403809,16.235352,55.725098,34.057617
1274,-0.446289,-0.504395,-0.315918,-5.187988,46.936035,43.579102
1275,-0.411133,-0.548340,-0.267578,-19.958496,36.254883,44.799805
1276,-0.366211,-0.603516,-0.267090,-33.264160,23.498535,46.630859
1277,-0.333008,-0.760742,-0.351562,-42.907715,-3.540039,49.926758
1278,-0.333496,-0.851562,-0.402832,-42.724609,-11.962891,50.659180
1279,-0.336914,-0.968750,-0.430664,-41.870117,-18.981934,48.217773
1280,-0.251953,-1.123047,-0.519531,-46.203613,-31.555176,38.146973
1281,-0.203125,-1.211426,-0.696289,-45.227051,-29.479980,31.677246
1282,-0.041016,-1.412598,-1.329590,-9.399414,29.357910,10.559082
1283,0.085938,-1.326660,-1.498047,27.648926,88.623047,10.131836
1284,0.068848,-1.154785,-1.269043,49.194336,144.958496,24.047852
1285,-0.337891,-0.893066,-0.677734,21.972656,159.301758,69.458008
1286,-0.601074,-0.913086,-0.504395,9.765625,125.183105,73.669434
1287,-0.770020,-0.932129,-0.407715,-4.516602,80.566406,64.086914
1288,-0.870117,-0.929199,-0.407227,-25.390625,43.457031,48.339844
1289,-0.865723,-0.963379,-0.433105,-96.374512,7.141113,36.926270
1290,-0.817871,-1.122070,-0.400391,-133.361816,-4.211426,33.569336
1291,-0.726074,-1.249512,-0.358398,-159.484863,-23.986816,25.939941
1292,-0.533203,-1.249023,-0.531250,-138.427734,-73.791504,4.516602
1293,-0.536133,-1.035156,-0.753418,-108.703613,-61.889648,7.446289
1294,-0.678711,-0.825195,-0.565430,-63.476562,20.751953,29.724121
1295,-0.701172,-0.780273,-0.324219,-30.334473,42.175293,29.235840
1296,-0.704102,-0.722168,-0.135254,6.774902,47.729492,29.479980
1297,-0.728516,-0.698730,-0.015137,74.035645,39.794922,29.052734
1298,-0.750000,-0.641113,0.277832,85.693359,28.015137,20.874023
1299,-0.665039,-0.560059,0.332520,72.143555,10.437012,11.535645
1300,-0.489746,-0.551758,0.029297,17.456055,-9.643555,1.342773
1301,-0.432617,-0.623535,-0.068848,-2.929688,-14.404297,-2.746582
1302,-0.378906,-0.664062,-0.143066,-14.343262,-23.803711,-8.117676
1303,-0.248535,-0.630371,-0.262695,-27.526855,-74.707031,-9.216309
1304,-0.076172,-0.600098,-0.301270,-25.146484,-109.619141,-7.324219
1305,0.168457,-0.866699,-0.459473,-74.829102,-209.716797,16.235352
1306,0.122559,-0.479492,-1.639648,-150.024414,-138.183594,35.827637
1307,0.002930,-0.303223,-1.037109,-133.178711,-71.960449,59.509277
1308,-0.167969,-0.333984,-0.492676,-123.596191,-45.593262,62.683105
1309,-0.234863,-0.302246,-0.039062,-126.708984,-51.574707,29.052734
1310,-0.212891,-0.252930,-0.077148,-117.370605,-52.368164,15.747070
1311,-0.203613,-0.212402,-0.173340,-95.581055,-39.001465,5.798340
1312,-0.339355,-0.265137,-0.253906,-18.249512,7.751465,-15.747070
1313,-0.420898,-0.267090,-0.240723,25.878906,19.165039,-33.813477
1314,-0.481445,-0.245605,-0.305664,67.993164,17.456055,-52.185059
1315,-0.570801,-0.297852,-0.455078,139.404297,-3.051758,-81.665039
1316,-0.590332,-0.399414,-0.516602,162.658691,-16.235352,-89.599609
1317,-0.510742,-0.677246,-0.844238,160.095215,-63.842773,-74.157715
1318,-0.396973,-1.040527,-1.506836,135.192871,-67.443848,-44.860840
1319,-0.270508,-1.895508,-2.583984,100.158691,4.211426,-31.494141
1320,-0.346680,-2.073242,-2.396973,99.060059,127.746582,-34.912109
1321,-0.606934,-1.471191,-0.898438,97.778320,152.160645,-17.761230
1322,-1.043945,-0.423828,0.226562,31.250000,-25.512695,24.108887
1323,-1.056641,-0.279785,0.082031,1.220703,-66.467285,34.301758
1324,-0.663086,-0.325684,-0.179199,-54.260254,-58.532715,-5.859375
1325,-0.543457,-0.529785,-0.431641,-53.894043,-25.085449,-29.052734
1326,-0.729492,-0.761719,-0.814941,-65.612793,6.042480,-32.836914
1327,-0.657715,-2.013672,-1.275879,16.479492,-27.709961,18.066406
1328,-0.623535,-1.174805,-0.232422,162.780762,-51.635742,27.954102
1329,-0.785645,-0.833008,0.163574,143.493652,-25.024414,33.081055
1330,-0.770020,-0.826172,0.142090,72.570801,25.085449,11.047363
1331,-0.656250,-0.855469,-0.024414,34.790039,96.191406,-36.926270
1332,-0.666504,-0.879883,-0.007812,46.691895,108.581543,-52.307129
1333,-0.552734,-0.885254,0.094238,62.194824,99.487305,-63.476562
1334,-0.487793,-0.899414,0.090332,58.288574,84.777832,-60.058594
1335,-0.471191,-0.951172,0.051270,49.987793,70.922852,-57.922363
1336,-0.445312,-0.963867,-0.033203,15.319824,59.387207,-60.302734
1337,-0.451660,-0.962891,-0.068848,-5.676270,53.527832,-57.067871
1338,-0.449707,-0.989258,-0.109863,-22.277832,41.381836,-51.086426
1339,-0.365234,-1.006836,-0.223145,-43.395996,10.375977,-37.231445
1340,-0.267578,-0.928223,-0.231445,-50.964355,-3.173828,-30.883789
1341,-0.188477,-0.829590,-0.268066,-50.964355,-17.517090,-23.437500
1342,-0.130859,-0.724121,-0.363770,-35.095215,-27.587891,-17.883301
1343,-0.189941,-0.554688,-0.446289,28.503418,-29.235840,-0.854492
1344,-0.270996,-0.534180,-0.399902,48.889160,-24.291992,1.220703
1345,-0.333008,-0.506836,-0.394043,56.396484,-17.456055,1.220703
1346,-0.315430,-0.451172,-0.485352,51.147461,9.155273,1.220703
1347,-0.291992,-0.480469,-0.488770,43.762207,25.207520,3.051758
1348,-0.266113,-0.483398,-0.461914,37.353516,35.705566,4.516602
1349,-0.262207,-0.550781,-0.337891,16.845703,39.733887,6.896973
1350,-0.250977,-0.563477,-0.329590,-2.685547,35.949707,7.080078
1351,-0.256348,-0.618652,-0.373535,-18.432617,33.386230,6.958008
1352,-0.239746,-0.626953,-0.369629,-27.282715,28.747559,7.873535
1353,-0.319824,-0.663574,-0.395020,-25.878906,1.892090,23.498535
1354,-0.352539,-0.663086,-0.416992,-25.268555,-10.192871,26.916504
1355,-0.315918,-0.564941,-0.672363,-32.775879,-6.652832,41.259766
1356,-0.230469,-0.438477,-0.922363,-22.155762,14.648438,65.856934
1357,-0.332520,-0.647461,-0.926270,0.366211,39.489746,87.463379
1358,-0.298828,-0.792969,-0.727051,11.291504,52.612305,90.820312
1359,-0.155762,-0.799805,-0.672852,7.202148,52.978516,91.003418
1360,-0.022461,-1.105957,-0.602051,35.583496,31.860352,85.998535
1361,-0.015137,-1.119629,-0.496582,44.555664,5.554199,70.556641
1362,-0.407715,-0.995605,-0.472168,23.010254,-6.469727,39.489746
1363,-0.735352,-1.077637,-0.548340,-22.460938,-4.821777,36.071777
1364,-0.986328,-1.120605,-0.679199,-59.082031,5.432129,17.456055
1365,-1.108398,-1.129883,-0.694336,-94.970703,20.202637,-0.549316
1366,-0.920898,-1.228027,-0.798340,-145.019531,25.207520,-16.845703
1367,-0.624023,-1.240723,-0.633789,-130.859375,1.953125,-11.535645
1368,-0.450195,-1.236328,-0.632324,-115.356445,-28.381348,2.258301
1369,-0.249023,-0.835449,-0.594727,-89.843750,-37.902832,29.541016
1370,-0.447266,-0.739746,-0.574707,-68.786621,-38.635254,49.438477
1371,-0.800781,-0.890625,-0.530273,-49.133301,-31.982422,49.072266
1372,-0.928711,-0.800293,-0.095215,-60.729980,-33.081055,9.948730
1373,-0.666504,-0.549805,-0.250977,-62.133789,-36.376953,0.122070
1374,-0.604492,-0.656250,-0.283203,-38.391113,-36.315918,7.202148
1375,-0.700195,-0.636719,0.226074,-20.751953,-63.110352,-8.422852
1376,-0.761230,-0.506836,0.124023,-41.992188,-74.340820,-12.756348
1377,-0.904785,-0.677246,-0.024902,-51.391602,-72.631836,-16.723633
1378,-0.759277,-0.609863,-0.459473,-23.559570,-48.339844,-38.024902
1379,-0.608398,-0.577148,-0.621094,18.859863,-20.568848,-27.038574
1380,-0.400879,-0.559082,-0.529297,63.354492,1.464844,-19.287109
1381,-0.062012,-0.637207,-0.602051,112.060547,8.605957,-2.258301
1382,0.213867,-0.985840,-2.304688,124.877930,-53.222656,14.343262
1383,0.105957,-0.828125,-1.506836,84.594727,16.357422,20.507812
1384,-0.326660,-0.638184,-0.483887,-49.865723,41.870117,3.967285
1385,-0.328125,-0.532227,-0.297363,-63.049316,14.648438,-11.596680
1386,-0.230469,-0.487305,-0.244629,-56.884766,-11.108398,-22.033691
1387,-0.131348,-0.537598,-0.182129,-34.362793,-29.907227,-33.386230
1388,-0.009766,-0.333008,0.373047,-6.469727,-66.162109,-45.349121
1389,-0.049316,-0.226562,0.505859,-42.175293,-80.322266,-34.423828
1390,-0.197754,-0.345215,0.321289,-84.716797,-75.195312,-30.700684
1391,-0.183594,-0.337891,-0.321777,-67.016602,-10.070801,-33.752441
1392,-0.229004,-0.329102,-0.176270,-36.499023,16.601562,-24.353027
1393,-0.335938,-0.322266,-0.328125,-14.648438,18.737793,-27.160645
1394,-0.349121,-0.429199,-0.638672,64.147949,-36.315918,-45.715332
1395,-0.405273,-0.380859,-0.793457,72.937012,-61.767578,-48.156738
1396,-0.580078,-0.536621,-1.024414,66.284180,-62.988281,-49.316406
1397,-0.579590,-0.666016,-1.190918,60.546875,-38.452148,-52.490234
1398,-0.412109,-1.306641,-1.670410,60.363770,62.255859,-54.626465
1399,-0.341309,-1.583008,-1.469727,83.862305,103.515625,-53.894043
1400,-0.547852,-1.474121,-0.803711,99.243164,76.049805,-25.268555
1401,-1.382812,-0.346191,0.132324,64.025879,-118.103027,85.632324
1402,-1.323730,-0.251953,-0.290039,13.977051,-154.968262,93.383789
1403,-0.923340,-0.258301,-0.554688,-24.780273,-124.267578,71.350098
1404,-0.572266,-0.641113,-0.939453,-78.918457,15.502930,-4.577637
1405,-0.781250,-1.191406,-1.572754,-89.172363,94.177246,-32.592773
1406,-0.760742,-1.542480,-1.523926,-16.296387,135.437012,-54.992676
1407,-0.071289,-0.698242,1.031250,274.719238,-73.547363,15.808105
1408,-0.520996,-1.268066,0.854980,217.895508,-117.065430,39.489746
1409,-0.840332,-1.611816,0.450195,10.131836,-40.649414,-29.785156
1410,-0.748047,-1.174805,0.183105,-21.423340,-29.907227,-38.635254
1411,-0.561523,-0.710449,-0.165039,-73.852539,16.723633,-50.720215
1412,-0.519531,-0.729004,-0.194336,-70.617676,42.602539,-51.208496
1413,-0.477539,-0.794922,-0.211426,-45.043945,59.814453,-48.583984
1414,-0.471191,-0.805664,-0.215820,-15.319824,73.547363,-39.978027
1415,-0.562988,-1.000488,-0.517090,7.385254,110.778809,-32.165527
1416,-0.596191,-1.092773,-0.791992,12.084961,145.507812,-41.870117
1417,-0.522949,-1.072266,-0.978516,57.434082,216.308594,-51.391602
1418,-0.386719,-1.037598,-0.676270,73.669434,209.655762,-37.109375
1419,-0.257324,-1.044922,-0.461914,67.138672,181.091309,-20.996094
1420,-0.133301,-1.058105,-0.383301,50.354004,150.878906,-10.559082
1421,-0.009277,-0.896484,-0.310059,33.142090,101.196289,-8.544922
1422,-0.038574,-0.762207,-0.255859,38.940430,76.843262,-3.051758
1423,-0.089844,-0.685059,-0.180176,42.907715,55.908203,3.479004
1424,-0.161621,-0.645508,-0.111816,40.954590,16.418457,-8.666992
1425,-0.137207,-0.528809,-0.105957,43.579102,-0.122070,-11.169434
1426,-0.153320,-0.416016,-0.088867,46.630859,-13.793945,-4.760742
1427,-0.211426,-0.441406,-0.101074,47.485352,-21.118164,-0.671387
1428,-0.294922,-0.471680,-0.094727,47.058105,-23.132324,-2.624512
1429,-0.340820,-0.634277,-0.104492,40.893555,-21.057129,-9.582520
1430,-0.316406,-0.717285,-0.165039,36.193848,-17.761230,-20.507812
1431,-0.250977,-0.725586,-0.243164,41.503906,-11.413574,-14.221191
1432,-0.324219,-0.743652,-0.155762,41.198730,-12.023926,1.159668
1433,-0.396484,-0.677734,-0.122559,40.405273,-15.991211,16.662598
1434,-0.441406,-0.646973,-0.052246,38.452148,-21.423340,26.672363
1435,-0.487305,-0.773926,-0.104492,22.216797,-28.320312,19.897461
1436,-0.427734,-0.831543,-0.183105,15.991211,-28.808594,8.850098
1437,-0.348145,-0.950195,-0.238770,14.038086,-34.179688,-1.464844
1438,-0.174316,-1.038574,-0.214844,-9.643555,-56.030273,-28.320312
1439,-0.094727,-0.995605,-0.373535,-20.629883,-85.388184,-14.526367
1440,-0.073242,-1.209961,-0.794922,26.062012,-119.934082,-14.892578
1441,0.074219,-1.404297,-1.081543,58.227539,-116.333008,-25.573730
1442,0.257812,-1.423340,-1.458008,88.867188,-79.772949,-47.119141
1443,0.134766,-1.150391,-2.030762,111.389160,5.371094,-52.734375
1444,-0.388672,-0.539551,-0.666016,20.324707,92.346191,-1.403809
1445,-0.505859,-0.550781,-0.455566,-26.000977,80.322266,22.766113
1446,-0.505371,-0.682617,-0.319336,-72.326660,67.382812,34.118652
1447,-0.458984,-0.900879,-0.256348,-160.217285,43.090820,45.166016
1448,-0.447754,-1.014648,-0.369629,-181.823730,34.301758,59.631348
1449,-0.434570,-1.158203,-0.423340,-183.715820,31.860352,68.298340
1450,-0.406738,-1.521484,-0.224121,-162.902832,17.150879,60.241699
1451,-0.395508,-1.493652,0.064941,-158.691406,-11.657715,46.020508
1452,-0.494141,-1.395996,-0.069336,-150.451660,-37.536621,39.184570
1453,-0.602051,-1.274414,-0.347168,-136.291504,-33.508301,36.193848
1454,-0.699219,-0.976074,-0.270020,-64.758301,32.531738,30.090332
1455,-0.699219,-0.870605,-0.021484,-23.071289,36.560059,28.747559
1456,-0.709473,-0.684570,0.161621,24.230957,1.586914,21.667480
1457,-0.717773,-0.698242,0.111816,20.446777,-22.155762,17.333984
1458,-0.691406,-0.759277,-0.040039,16.601562,-41.076660,5.920410
1459,-0.440918,-0.715332,-0.229492,5.187988,-75.317383,-5.126953
1460,-0.324219,-0.712402,-0.308594,2.502441,-90.515137,2.502441
1461,-0.207520,-0.714355,-0.341797,-5.249023,-107.666016,12.939453
1462,-0.105957,-0.753906,-0.589844,-51.818848,-151.306152,32.287598
1463,-0.100098,-0.742188,-0.700684,-69.885254,-148.864746,35.888672
1464,-0.123047,-0.772949,-0.774414,-91.186523,-138.427734,38.757324
1465,-0.145996,-0.662598,-0.695801,-129.211426,-84.411621,32.348633
1466,-0.178711,-0.594238,-0.532715,-140.625000,-59.448242,32.165527
1467,-0.227051,-0.542969,-0.356445,-146.057129,-44.128418,28.320312
1468,-0.241699,-0.475098,-0.228027,-147.094727,-36.865234,21.728516
1469,-0.237305,-0.385254,-0.171387,-119.628906,-33.142090,10.375977
1470,-0.264160,-0.358887,-0.195801,-95.031738,-25.756836,4.455566
1471,-0.357422,-0.351562,-0.174805,-46.813965,-8.544922,-10.192871
1472,-0.400391,-0.361816,-0.220703,-22.644043,-4.028320,-20.568848
1473,-0.450684,-0.384766,-0.313477,6.103516,-2.380371,-30.639648
1474,-0.514160,-0.445312,-0.415527,39.855957,-2.929688,-42.419434
1475,-0.538086,-0.483398,-0.615723,115.783691,-17.578125,-71.472168
1476,-0.502441,-0.484375,-0.706055,145.568848,-26.916504,-81.420898
1477,-0.498047,-0.531250,-0.748535,161.987305,-30.578613,-85.571289
1478,-0.472168,-0.751953,-0.752441,129.272461,-28.930664,-79.589844
1479,-0.347656,-0.899902,-0.876465,83.312988,-34.973145,-61.645508
1480,-0.200684,-1.123047,-1.294434,36.376953,-31.799316,-40.405273
1481,-0.226562,-1.551270,-1.821289,14.709473,81.604004,-26.733398
1482,-0.485840,-1.330566,-0.931152,17.517090,104.248047,-25.024414
1483,-0.852539,-0.862793,-0.170898,5.981445,51.208496,4.760742
1484,-1.240723,-0.544922,0.407227,18.310547,-54.931641,27.465820
1485,-0.745117,-0.578613,0.198242,16.906738,-97.229004,6.774902
1486,-0.697266,-0.734375,-0.057617,6.774902,-104.797363,1.586914
1487,-0.796387,-0.932617,-0.348145,-57.739258,-105.285645,11.718750
1488,-0.759766,-1.690430,-1.567871,-180.908203,-26.123047,39.611816
1489,-0.508301,-1.098145,-0.799316,-53.833008,9.399414,32.165527
1490,-0.480469,-0.786621,-0.223633,27.526855,15.014648,31.677246
1491,-0.623535,-0.696777,-0.198242,73.181152,45.349121,0.183105
1492,-0.667480,-0.744141,-0.209961,81.481934,76.354980,-24.169922
1493,-0.660645,-0.792969,-0.175293,87.707520,105.102539,-46.875000
1494,-0.537109,-0.854980,-0.019531,84.655762,127.136230,-64.086914
1495,-0.491211,-0.927246,0.055664,66.040039,121.337891,-59.143066
1496,-0.438477,-0.959473,0.103516,33.264160,111.450195,-56.335449
1497,-0.339355,-0.895020,0.094727,-41.320801,82.946777,-49.194336
1498,-0.320801,-0.890625,-0.026855,-55.847168,60.241699,-40.832520
1499,-0.312012,-0.912109,-0.183105,-42.480469,38.024902,-30.456543
1500,-0.295410,-0.938477,-0.274902,-12.207031,21.423340,-19.531250
1501,-0.295898,-0.957520,-0.238770,33.874512,10.742188,3.417969
1502,-0.328125,-0.968750,-0.191406,33.569336,11.779785,8.728027
1503,-0.375977,-0.941406,-0.124512,15.136719,6.164551,-0.305176
1504,-0.395508,-0.910645,-0.112305,7.995605,-8.850098,-11.291504
1505,-0.397949,-0.865723,-0.234863,6.164551,-24.963379,-23.498535
1506,-0.335938,-0.801758,-0.399414,10.131836,-30.151367,-31.005859
1507,-0.187012,-0.682129,-0.616699,36.499023,-17.639160,-31.311035
1508,-0.134277,-0.586914,-0.649902,54.443359,-4.760742,-23.376465
1509,-0.164551,-0.432617,-0.583008,75.866699,25.512695,-2.502441
1510,-0.208008,-0.406250,-0.527344,73.669434,38.024902,5.737305
1511,-0.246582,-0.417480,-0.494629,64.086914,47.241211,12.145996
1512,-0.260254,-0.455566,-0.466797,50.903320,52.551270,16.906738
1513,-0.258301,-0.558105,-0.411133,24.047852,46.386719,28.991699
1514,-0.288086,-0.630859,-0.396484,11.474609,35.888672,33.386230
1515,-0.324707,-0.702148,-0.422852,0.549316,24.841309,35.217285
1516,-0.374512,-0.807129,-0.476074,-9.399414,9.765625,38.146973
1517,-0.390625,-0.850586,-0.462402,-11.596680,3.051758,37.841797
1518,-0.376465,-0.884766,-0.456543,-14.404297,-4.089355,35.278320
1519,-0.355469,-0.935547,-0.479492,-17.944336,-9.948730,30.517578
1520,-0.242188,-0.965820,-0.567871,-19.836426,-15.991211,23.498535
1521,-0.195801,-0.976074,-0.651855,-18.554688,-14.465332,23.437500
1522,-0.155273,-0.991211,-0.765137,-16.784668,-4.089355,25.695801
1523,-0.083984,-1.034668,-0.990234,-4.882812,47.180176,28.625488
1524,-0.056152,-1.029297,-0.942871,1.647949,80.566406,28.991699
1525,-0.086426,-0.999512,-0.783691,-3.173828,105.895996,26.062012
1526,-0.230469,-0.948242,-0.495117,-25.573730,105.834961,24.597168
1527,-0.369629,-1.009277,-0.378418,-35.949707,84.411621,19.775391
1528,-0.484375,-1.044922,-0.285645,-51.269531,56.762695,8.789062
1529,-0.559570,-1.048340,-0.218750,-88.562012,-2.197266,-5.920410
1530,-0.667969,-1.167480,-0.244629,-104.492188,-25.024414,-9.643555
1531,-0.655273,-1.240723,-0.259277,-116.027832,-41.625977,-10.864258
1532,-0.602539,-1.355957,-0.307617,-124.084473,-71.105957,-14.282227
1533,-0.545410,-1.240234,-0.478516,-108.215332,-76.232910,-12.023926
1534,-0.493652,-0.993652,-0.765137,-79.040527,-53.710938,2.319336
1535,-0.458008,-0.618164,-0.596680,-15.014648,35.827637,35.522461
1536,-0.512695,-0.573730,-0.390137,-0.549316,60.241699,40.588379
1537,-0.574219,-0.562012,-0.239258,8.544922,65.734863,35.583496
1538,-0.641113,-0.558594,-0.139160,13.427734,55.725098,27.099609
1539,-0.675293,-0.580566,-0.137207,10.253906,14.038086,11.291504
1540,-0.666016,-0.587402,-0.214355,14.221191,-5.981445,5.737305
1541,-0.553711,-0.616699,-0.397949,35.278320,-32.226562,3.295898
1542,-0.463379,-0.641113,-0.373535,40.527344,-38.879395,10.314941
1543,-0.416016,-0.720215,-0.415039,35.949707,-51.818848,15.869141
1544,-0.353516,-0.744141,-0.504395,24.780273,-61.035156,16.296387
1545,-0.207031,-0.768066,-0.610840,-4.516602,-90.820312,32.531738
1546,-0.216797,-0.774414,-0.688965,-19.531250,-104.187012,38.818359
1547,-0.231934,-0.718262,-0.662598,-39.978027,-100.891113,38.269043
1548,-0.254883,-0.650879,-0.533203,-92.224121,-85.205078,37.109375
1549,-0.286621,-0.636230,-0.485840,-112.609863,-73.913574,32.897949
1550,-0.304199,-0.546387,-0.393555,-122.985840,-64.208984,28.747559
1551,-0.323242,-0.476074,-0.312988,-121.520996,-46.386719,21.911621
1552,-0.329590,-0.404297,-0.258789,-108.154297,-37.109375,17.883301
1553,-0.316406,-0.386230,-0.261230,-85.327148,-25.817871,11.962891
1554,-0.307617,-0.359375,-0.258301,-54.870605,-13.244629,6.042480
1555,-0.370117,-0.369141,-0.233398,11.108398,1.892090,-8.911133
1556,-0.411133,-0.397461,-0.295410,42.907715,3.295898,-20.141602
1557,-0.455566,-0.469238,-0.523926,105.041504,4.699707,-47.119141
1558,-0.458008,-0.455566,-0.624512,132.141113,4.028320,-59.631348
1559,-0.477539,-0.467285,-0.734863,149.597168,2.746582,-69.458008
1560,-0.494141,-0.571289,-0.877441,155.151367,13.366699,-78.491211
1561,-0.479492,-0.673828,-0.854492,132.934570,21.057129,-70.800781
1562,-0.416992,-0.810059,-0.831055,51.574707,0.427246,-32.470703
1563,-0.269531,-1.200684,-1.234375,10.437012,1.647949,-18.798828
1564,-0.282227,-1.253906,-1.335938,-1.892090,27.099609,-11.291504
1565,-0.574707,-1.209961,-0.690918,27.465820,41.015625,-10.803223
1566,-0.775879,-0.966309,-0.207031,31.433105,6.469727,-5.554199
1567,-0.942383,-0.755859,0.088867,28.991699,-46.325684,6.103516
1568,-1.003418,-0.686035,0.162598,25.878906,-95.458984,10.620117
1569,-0.597656,-0.569336,-0.262207,-16.174316,-117.309570,9.826660
1570,-0.585938,-0.763184,-0.618652,-52.612305,-85.693359,10.131836
1571,-0.748047,-1.586426,-1.451660,-181.701660,-5.493164,30.761719
1572,-0.525391,-1.277832,-0.911133,-137.329102,5.615234,38.330078
1573,-0.467285,-0.806641,-0.272461,-49.987793,0.366211,36.071777
1574,-0.552734,-0.579590,0.062012,4.760742,0.122070,25.512695
1575,-0.663086,-0.611816,0.016602,54.870605,17.272949,-15.075684
1576,-0.640137,-0.600098,0.001465,73.913574,24.841309,-36.987305
1577,-0.625977,-0.602051,-0.027832,88.684082,32.287598,-53.344727
1578,-0.590332,-0.696777,-0.015625,109.497070,46.264648,-72.387695
1579,-0.547363,-0.793457,0.031738,113.037109,43.151855,-73.120117
1580,-0.494629,-0.907715,0.023926,104.797363,35.278320,-71.655273
1581,-0.425293,-1.000000,-0.096191,52.856445,37.719727,-68.847656
1582,-0.384277,-0.997559,-0.187988,25.634766,44.128418,-58.532715
1583,-0.361816,-1.036133,-0.269043,10.253906,47.790527,-45.227051
1584,-0.342773,-1.053223,-0.320312,6.042480,47.851562,-33.081055
1585,-0.354004,-1.075195,-0.364258,12.756348,41.992188,-14.648438
1586,-0.358398,-1.084473,-0.335938,7.080078,39.123535,-12.451172
1587,-0.275391,-1.063965,-0.206055,-17.333984,18.737793,-24.230957
1588,-0.196777,-1.013184,-0.142090,-17.761230,-12.145996,-26.794434
1589,-0.179688,-0.972656,-0.256348,-5.676270,-46.203613,-26.794434
1590,-0.114258,-0.813965,-0.637695,30.944824,-41.198730,-25.939941
1591,-0.098633,-0.699707,-0.651367,38.024902,-13.488770,-23.803711
1592,-0.093750,-0.580566,-0.625977,41.137695,12.878418,-17.578125
1593,-0.185547,-0.510742,-0.524414,47.180176,46.142578,2.258301
1594,-0.245117,-0.520020,-0.458984,45.349121,52.917480,8.728027
1595,-0.291016,-0.534180,-0.405273,29.479980,48.400879,14.404297
1596,-0.339355,-0.562988,-0.375977,19.409180,43.579102,15.625000
1597,-0.341309,-0.581055,-0.362305,8.056641,38.940430,17.028809
1598,-0.340332,-0.614746,-0.356934,-3.662109,34.362793,19.104004
1599,-0.331543,-0.686523,-0.341309,-21.240234,24.108887,25.024414
1600,-0.332520,-0.717285,-0.304199,-28.564453,15.258789,28.442383
1601,-0.340332,-0.756348,-0.286621,-35.156250,4.394531,30.822754
1602,-0.330078,-0.833496,-0.307617,-42.785645,-15.380859,31.921387
1603,-0.333984,-0.917480,-0.360352,-43.518066,-21.545410,29.479980
1604,-0.243652,-0.993164,-0.457031,-36.071777,-26.550293,19.042969
1605,-0.175293,-0.991211,-0.526855,-30.700684,-26.550293,16.113281
1606,-0.116699,-1.000977,-0.666016,-23.315430,-19.592285,15.808105
1607,-0.079102,-1.038086,-0.868164,-8.361816,-1.037598,16.967773
1608,-0.036133,-1.068359,-1.021484,38.818359,68.115234,22.155762
1609,-0.096680,-1.025879,-0.860840,40.649414,100.708008,26.306152
1610,-0.307129,-1.014648,-0.574219,4.882812,118.774414,31.188965
1611,-0.434570,-1.063965,-0.441406,-12.756348,99.731445,27.282715
1612,-0.557129,-1.100098,-0.342773,-31.372070,66.467285,19.104004
1613,-0.655273,-1.110840,-0.289062,-49.804688,26.184082,10.437012
1614,-0.719238,-1.132324,-0.406250,-86.303711,-35.339355,-2.136230
1615,-0.679199,-1.167969,-0.458496,-103.149414,-45.959473,-1.953125
1616,-0.603516,-1.175293,-0.494141,-113.830566,-49.377441,0.732422
1617,-0.520508,-1.026367,-0.511230,-101.013184,-49.438477,9.399414
1618,-0.514648,-0.835449,-0.609863,-77.453613,-33.935547,21.850586
1619,-0.564453,-0.617676,-0.396484,-35.949707,19.042969,35.583496
1620,-0.606445,-0.596680,-0.231934,-25.817871,32.409668,33.081055
1621,-0.651367,-0.617676,-0.086426,-18.554688,32.531738,26.245117
1622,-0.682129,-0.631836,0.035156,-13.183594,19.165039,19.104004
1623,-0.645508,-0.653320,-0.036133,-0.061035,-22.644043,11.840820
1624,-0.635254,-0.666504,-0.158691,10.620117,-28.991699,11.535645
1625,-0.612793,-0.671875,-0.187988,24.658203,-17.150879,13.427734
1626,-0.620117,-0.717773,-0.167480,20.385742,-30.090332,17.517090
1627,-0.581543,-0.739746,-0.232910,14.404297,-54.809570,15.075684
1628,-0.483398,-0.728027,-0.346680,12.451172,-82.946777,13.732910
1629,-0.324219,-0.750977,-0.273926,-22.949219,-180.175781,33.874512
1630,-0.315918,-0.764648,-0.996582,-33.508301,-173.828125,33.874512
1631,-0.254883,-0.588379,-0.946289,-67.993164,-142.150879,41.137695
1632,-0.212402,-0.469238,-0.913574,-112.365723,-98.388672,52.795410
1633,-0.289062,-0.464355,-0.649902,-149.780273,-33.264160,60.668945
1634,-0.322266,-0.400391,-0.374512,-157.592773,-7.873535,52.062988
1635,-0.322754,-0.383789,-0.312012,-148.986816,-2.197266,45.837402
1636,-0.305176,-0.371582,-0.286133,-128.417969,2.685547,38.513184
1637,-0.298828,-0.378418,-0.287109,-95.336914,9.582520,31.250000
1638,-0.333984,-0.383789,-0.249512,-12.390137,16.113281,11.474609
1639,-0.370117,-0.389160,-0.270020,25.451660,14.099121,-2.441406
1640,-0.442383,-0.381348,-0.469727,95.703125,4.577637,-32.226562
1641,-0.494141,-0.378418,-0.562012,127.807617,1.220703,-48.095703
1642,-0.523926,-0.365723,-0.599121,158.020020,-0.549316,-63.903809
1643,-0.539062,-0.368652,-0.608398,178.710938,-0.854492,-75.744629
1644,-0.597656,-0.549316,-0.685059,183.593750,5.859375,-91.918945
1645,-0.595215,-0.650391,-0.696289,167.785645,7.080078,-93.261719
1646,-0.524902,-0.764160,-0.710938,122.070312,1.098633,-82.458496
1647,-0.392090,-2.000488,-1.929199,-94.360352,-4.333496,-24.169922
1648,-0.730469,-1.375000,-1.416504,-66.223145,-4.028320,12.145996
1649,-0.967285,-0.686035,-0.138184,26.123047,-17.089844,34.790039
1650,-0.891113,-0.495605,0.180664,23.132324,-27.343750,22.033691
1651,-0.790039,-0.374023,0.172363,-0.427246,-35.217285,9.155273
1652,-0.677734,-0.364258,-0.016113,-27.770996,-36.743164,-2.380371
1653,-0.715332,-0.527344,-0.421875,-35.888672,-22.277832,-9.521484
1654,-0.874023,-0.788574,-0.472656,-71.105957,-31.188965,7.324219
1655,-0.933105,-1.508301,-1.132812,-109.863281,-35.461426,25.512695
1656,-0.635254,-0.953125,-0.397949,69.763184,-11.596680,15.319824
1657,-0.641113,-0.815430,-0.104492,83.068848,-1.647949,13.671875
1658,-0.657227,-0.818848,-0.130859,60.974121,19.042969,-3.417969
1659,-0.673828,-0.754395,-0.173828,42.175293,70.007324,-35.095215
1660,-0.661133,-0.764648,-0.094238,45.654297,82.275391,-46.447754
1661,-0.607422,-0.796387,-0.024414,56.701660,80.017090,-58.715820
1662,-0.427734,-0.823730,0.042969,85.327148,64.453125,-77.453613
1663,-0.398438,-0.835449,0.108887,75.500488,58.227539,-80.871582
1664,-0.364258,-0.958496,0.003418,16.601562,49.560547,-75.622559
1665,-0.338379,-1.017090,-0.109863,-13.549805,49.011230,-67.443848
1666,-0.318848,-1.081543,-0.234863,-33.142090,47.302246,-56.701660
1667,-0.253418,-1.148926,-0.486816,-32.287598,40.344238,-37.170410
1668,-0.213379,-1.127441,-0.542480,-15.563965,41.442871,-30.700684
1669,-0.163574,-1.050293,-0.449219,0.976562,40.222168,-25.817871
1670,-0.093750,-0.900391,-0.286621,16.540527,14.038086,-16.723633
1671,-0.085938,-0.829102,-0.272461,21.545410,-4.943848,-12.817383
1672,-0.154297,-0.794434,-0.352539,28.015137,-19.653320,-11.596680
1673,-0.208496,-0.700195,-0.603027,41.687012,2.624512,-10.681152
1674,-0.200684,-0.645996,-0.577637,45.837402,24.902344,-9.338379
1675,-0.191406,-0.579590,-0.513672,47.729492,40.710449,-4.760742
1676,-0.246094,-0.533203,-0.438965,45.959473,48.950195,8.911133
1677,-0.303711,-0.530273,-0.414062,43.762207,46.508789,14.221191
1678,-0.353516,-0.533691,-0.389648,39.062500,42.602539,17.517090
1679,-0.402344,-0.554688,-0.370117,18.249512,32.836914,20.507812
1680,-0.396484,-0.588867,-0.386719,7.263184,28.808594,21.240234
1681,-0.374023,-0.631348,-0.396484,-1.647949,24.963379,22.338867
1682,-0.347168,-0.680664,-0.393066,-8.972168,19.958496,23.620605
1683,-0.313965,-0.765625,-0.368164,-22.155762,6.896973,24.536133
1684,-0.316895,-0.824219,-0.379395,-27.404785,0.122070,22.949219
1685,-0.313477,-0.881836,-0.407715,-29.174805,-5.920410,19.531250
1686,-0.247070,-0.942871,-0.479492,-26.916504,-16.052246,14.282227
1687,-0.199219,-0.952148,-0.568848,-23.925781,-16.662598,14.160156
1688,-0.146484,-0.959961,-0.680664,-17.944336,-9.643555,15.747070
1689,-0.046387,-0.967285,-0.815918,7.263184,23.620605,23.437500
1690,-0.027344,-0.979980,-0.797852,19.714355,43.273926,26.611328
1691,-0.055664,-0.985840,-0.754883,24.414062,61.340332,27.587891
1692,-0.094238,-0.958496,-0.715820,21.606445,76.354980,28.747559
1693,-0.273926,-0.965332,-0.653809,8.728027,87.951660,35.461426
1694,-0.412109,-0.998535,-0.616211,5.432129,82.397461,35.217285
1695,-0.624512,-0.940918,-0.401367,-3.356934,44.555664,26.550293
1696,-0.657715,-0.839355,-0.328125,-13.854980,18.188477,19.958496
1697,-0.663086,-0.777832,-0.337891,-29.113770,-2.868652,13.549805
1698,-0.616699,-0.757812,-0.385742,-49.804688,-13.488770,7.995605
1699,-0.426758,-0.854004,-0.490234,-93.078613,-16.174316,10.253906
1700,-0.390137,-0.996094,-0.513672,-104.248047,-21.362305,15.319824
1701,-0.367676,-1.133789,-0.616699,-106.384277,-26.611328,17.883301
1702,-0.363770,-1.217773,-0.825684,-95.764160,-21.362305,17.578125
1703,-0.398926,-0.962402,-0.880371,-49.987793,27.404785,40.161133
1704,-0.446777,-0.820801,-0.556641,-39.001465,40.893555,48.217773
1705,-0.493164,-0.741211,-0.329102,-37.414551,38.818359,44.433594
1706,-0.550781,-0.629395,-0.088379,-40.344238,5.859375,26.245117
1707,-0.590332,-0.631348,-0.032227,-37.719727,-17.333984,18.432617
1708,-0.619141,-0.659668,-0.055176,-27.648926,-39.672852,14.770508
1709,-0.603027,-0.768066,-0.029785,8.789062,-64.208984,8.056641
1710,-0.597656,-0.812500,-0.128418,10.009766,-47.912598,1.525879
1711,-0.583496,-0.817871,-0.173828,1.525879,-25.207520,0.610352
1712,-0.552734,-0.827148,-0.186035,-3.051758,-9.582520,1.464844
1713,-0.491211,-0.806641,-0.298340,6.958008,-24.841309,1.647949
1714,-0.435059,-0.799316,-0.412598,20.080566,-61.584473,3.601074
1715,-0.357910,-0.826172,-0.477539,25.817871,-153.381348,7.080078
1716,-0.229492,-0.520996,-1.331055,-15.625000,-184.020996,12.451172
1717,-0.186523,-0.346191,-1.245117,-67.565918,-119.689941,32.836914
1718,-0.300781,-0.310059,-0.750000,-118.591309,-21.423340,57.067871
1719,-0.334473,-0.307129,-0.553711,-122.131348,0.000000,53.100586
1720,-0.333984,-0.313477,-0.452148,-110.290527,12.451172,47.058105
1721,-0.334961,-0.350586,-0.388672,-85.571289,24.536133,39.916992
1722,-0.349609,-0.441406,-0.138672,-17.089844,37.109375,23.193359
1723,-0.346191,-0.479492,-0.027832,16.296387,30.944824,14.099121
1724,-0.361816,-0.507812,0.036621,39.428711,19.042969,4.699707
1725,-0.434082,-0.563965,-0.175293,53.710938,5.249023,-17.089844
1726,-0.453125,-0.540527,-0.287598,54.748535,5.004883,-31.311035
1727,-0.468750,-0.515625,-0.406738,52.673340,4.272461,-43.884277
1728,-0.474609,-0.511230,-0.728027,74.096680,-4.028320,-65.429688
1729,-0.468750,-0.532715,-0.867676,95.336914,-7.568359,-69.213867
1730,-0.489746,-0.593262,-0.942383,112.670898,-7.385254,-68.298340
1731,-0.441895,-0.794922,-1.084961,102.233887,-9.704590,-51.391602
1732,-0.327148,-0.978027,-1.320801,58.105469,-3.295898,-32.775879
1733,-0.326660,-1.362793,-1.693359,18.981934,23.742676,-11.535645
1734,-0.576660,-1.149414,-0.827637,20.141602,57.983398,6.591797
1735,-0.717285,-0.854980,-0.346680,27.648926,29.541016,14.221191
1736,-0.832520,-0.670898,-0.074707,33.996582,-8.728027,15.930176
1737,-0.908203,-0.538574,0.059082,22.644043,-70.007324,2.075195
1738,-0.708008,-0.451172,-0.135254,-5.126953,-79.711914,-5.432129
1739,-0.585938,-0.598145,-0.515625,-36.376953,-70.068359,-1.098633
1740,-0.711426,-1.446289,-1.444336,-159.973145,-25.939941,21.911621
1741,-0.539062,-1.549805,-1.426758,-166.015625,-2.014160,37.963867
1742,-0.488281,-1.033203,-0.622070,-60.424805,5.920410,45.715332
1743,-0.667480,-0.411133,0.579590,39.611816,-4.455566,31.005859
1744,-0.684082,-0.483887,0.334473,24.780273,-11.169434,9.704590
1745,-0.619141,-0.612793,0.075684,34.423828,0.366211,-18.432617
1746,-0.570312,-0.638672,0.002930,65.734863,9.155273,-41.564941
1747,-0.585449,-0.666016,0.055176,116.455078,12.329102,-66.833496
1748,-0.590332,-0.784668,0.054199,125.061035,8.178711,-76.354980
1749,-0.538086,-0.926270,-0.002930,120.239258,7.446289,-85.327148
1750,-0.364258,-1.068359,-0.118164,62.011719,34.851074,-89.233398
1751,-0.259766,-1.054688,-0.183105,16.906738,52.490234,-75.988770
1752,-0.229004,-1.074219,-0.324219,-14.099121,61.706543,-55.541992
1753,-0.373047,-1.113281,-0.524414,6.958008,45.837402,-24.230957
1754,-0.410156,-1.081055,-0.483398,28.198242,30.822754,-19.653320
1755,-0.382812,-1.033691,-0.394043,23.498535,26.184082,-19.104004
1756,-0.268555,-1.020508,-0.350586,-14.221191,22.521973,-22.094727
1757,-0.185547,-1.009766,-0.364746,-17.700195,12.084961,-25.146484
1758,-0.111328,-0.968750,-0.313477,-9.155273,-4.272461,-25.146484
1759,-0.208496,-0.886719,-0.406250,14.282227,-36.682129,-22.827148
1760,-0.216309,-0.814453,-0.556152,20.812988,-24.597168,-23.376465
1761,-0.185547,-0.734863,-0.589844,25.512695,-3.295898,-22.827148
1762,-0.165039,-0.648926,-0.561035,31.250000,15.075684,-19.409180
1763,-0.207520,-0.546875,-0.468262,38.269043,31.372070,-6.225586
1764,-0.243652,-0.531738,-0.445312,39.794922,32.104492,-1.098633
1765,-0.315430,-0.553711,-0.416504,26.245117,34.545898,4.882812
1766,-0.333008,-0.571777,-0.417480,14.648438,35.827637,7.629395
1767,-0.331055,-0.590820,-0.411133,3.112793,36.987305,10.498047
1768,-0.331543,-0.666016,-0.382812,-14.160156,31.494141,16.967773
1769,-0.334961,-0.704102,-0.347656,-19.165039,24.597168,18.859863
1770,-0.339355,-0.743164,-0.317871,-23.193359,15.319824,20.141602
1771,-0.344727,-0.785156,-0.285156,-25.573730,3.723145,20.751953
1772,-0.327148,-0.854492,-0.300293,-24.536133,-17.578125,18.005371
1773,-0.302246,-0.875977,-0.329590,-22.399902,-23.498535,16.906738
1774,-0.273438,-0.900391,-0.377930,-20.385742,-25.817871,15.686035
1775,-0.200195,-0.930176,-0.571777,-17.639160,-19.348145,13.854980
1776,-0.171875,-0.963867,-0.730957,-11.413574,-6.103516,13.549805
1777,-0.139648,-1.005859,-0.881836,2.014160,14.587402,13.183594
1778,-0.073730,-1.026855,-1.004395,40.649414,72.814941,16.601562
1779,-0.099121,-0.989258,-0.872070,40.222168,101.196289,21.606445
1780,-0.160645,-0.954102,-0.724121,23.071289,118.164062,27.709961
1781,-0.383301,-0.972656,-0.461426,-14.587402,96.923828,31.188965
1782,-0.520508,-0.978516,-0.376465,-28.564453,64.819336,24.230957
1783,-0.608887,-0.950684,-0.345215,-43.823242,31.005859,16.174316
1784,-0.643555,-0.981445,-0.419922,-77.941895,-12.390137,3.723145
1785,-0.592773,-1.047363,-0.467773,-95.153809,-19.348145,3.784180
1786,-0.528809,-1.121094,-0.447266,-107.055664,-24.230957,8.300781
1787,-0.550781,-1.357422,-0.333008,-128.601074,-51.818848,6.530762
1788,-0.574707,-1.315918,-0.549316,-122.924805,-62.194824,-0.549316
1789,-0.418945,-0.770508,-0.721191,-62.561035,-2.929688,11.840820
1790,-0.396484,-0.607910,-0.485352,-41.992188,21.850586,27.893066
1791,-0.452148,-0.600586,-0.320312,-28.808594,34.790039,33.386230
1792,-0.524902,-0.545898,-0.103027,-16.357422,35.583496,20.385742
1793,-0.550781,-0.535645,-0.044434,-10.192871,25.268555,16.113281
1794,-0.557617,-0.575195,-0.056152,0.244141,10.620117,15.441895
1795,-0.586914,-0.624512,-0.121094,15.502930,-0.549316,16.479492
1796,-0.643066,-0.693359,-0.145020,31.860352,-0.915527,15.075684
1797,-0.675781,-0.731934,-0.115234,20.996094,-16.723633,14.892578
1798,-0.528809,-0.758301,-0.347656,9.948730,-53.466797,4.760742
1799,-0.402344,-0.744629,-0.451660,8.605957,-66.894531,2.014160
1800,-0.250000,-0.720215,-0.454590,0.244141,-85.815430,3.906250
1801,-0.165039,-0.773438,-0.678711,-19.775391,-123.107910,13.000488
1802,-0.168945,-0.598633,-0.860352,-46.386719,-118.530273,21.057129
1803,-0.191406,-0.546387,-0.795410,-81.054688,-95.520020,29.663086
1804,-0.315918,-0.531738,-0.629883,-124.816895,-50.048828,33.874512
1805,-0.379395,-0.530762,-0.529297,-130.859375,-34.790039,31.433105
1806,-0.422363,-0.528320,-0.477051,-125.793457,-23.742676,28.076172
1807,-0.427734,-0.526367,-0.448242,-108.459473,-13.427734,24.169922
1808,-0.395020,-0.490723,-0.350098,-39.978027,7.690430,15.686035
1809,-0.392090,-0.468262,-0.251953,-2.136230,15.686035,9.399414
1810,-0.413574,-0.452637,-0.161621,24.230957,16.906738,1.464844
1811,-0.436035,-0.518555,-0.381348,57.189941,25.756836,-21.362305
1812,-0.415527,-0.519043,-0.460449,78.552246,32.165527,-31.799316
1813,-0.411133,-0.528809,-0.531250,97.839355,36.071777,-40.832520
1814,-0.431641,-0.542480,-0.667480,114.501953,44.311523,-59.326172
1815,-0.447266,-0.565918,-0.725586,114.135742,50.598145,-64.086914
1816,-0.449707,-0.606445,-0.759277,104.980469,57.983398,-62.988281
1817,-0.436035,-0.789551,-0.764160,68.969727,56.335449,-42.907715
1818,-0.418457,-0.865723,-0.742188,51.696777,38.574219,-29.724121
1819,-0.333984,-0.884766,-0.790527,40.100098,16.357422,-17.944336
1820,-0.208008,-0.707520,-0.770508,33.691406,-15.258789,-12.390137
1821,-0.294922,-0.825684,-1.077637,43.579102,-36.621094,-10.192871
1822,-0.377930,-0.857422,-1.061523,59.692383,-35.949707,-6.042480
1823,-0.600098,-0.793945,-0.458008,26.672363,-15.441895,-5.493164
1824,-0.652344,-0.683594,-0.186523,-5.920410,-21.972656,-11.596680
1825,-0.644043,-0.640137,-0.121582,-30.883789,-34.484863,-20.935059
1826,-0.591309,-0.644043,-0.241699,-36.987305,-45.043945,-30.456543
1827,-0.486816,-0.770508,-0.544434,-4.455566,-51.757812,-35.278320
1828,-0.478516,-0.894043,-0.607422,8.789062,-55.847168,-26.916504
