order,ax,ay,az,gx,gy,gz
0,0.022461,-0.568848,0.912109,-1.525879,-24.230957,-58.166504
1,-0.003418,-0.465820,0.908691,-10.925293,-14.099121,-61.767578
2,0.004883,-0.317383,0.978027,-27.954102,7.751465,-59.509277
3,0.011230,-0.308105,1.063477,-36.376953,13.427734,-53.894043
4,0.011230,-0.378418,1.069336,-40.100098,10.437012,-51.208496
5,0.052246,-0.416992,0.979980,-26.062012,0.122070,-49.743652
6,0.048340,-0.466309,0.980957,-19.897461,2.441406,-48.889160
7,0.032715,-0.498535,0.974609,-12.451172,3.662109,-50.354004
8,0.065430,-0.448242,1.000977,4.028320,-3.967285,-51.025391
9,0.091797,-0.426758,1.001953,3.479004,-11.230469,-49.621582
10,0.143066,-0.416016,0.939453,-3.173828,-15.380859,-49.011230
11,0.153320,-0.430664,0.862305,-14.160156,-16.418457,-48.278809
12,0.205078,-0.491211,0.696289,-8.483887,-13.305664,-50.231934
13,0.230469,-0.455566,0.700195,0.061035,-7.629395,-49.255371
14,0.217773,-0.449219,0.739746,3.417969,-2.136230,-48.522949
15,0.220703,-0.443848,0.759277,3.112793,-0.061035,-47.729492
16,0.246582,-0.492188,0.745605,12.329102,-1.831055,-44.921875
17,0.260254,-0.500000,0.739258,21.667480,-2.929688,-41.381836
18,0.269043,-0.513672,0.748047,25.207520,-1.708984,-37.292480
19,0.270996,-0.509277,0.773926,22.277832,2.319336,-34.912109
20,0.280762,-0.471680,0.811035,10.864258,10.192871,-31.433105
21,0.285156,-0.456055,0.811523,6.774902,13.305664,-29.968262
22,0.289551,-0.451172,0.806641,10.192871,12.695312,-27.282715
23,0.300781,-0.415039,0.832520,15.258789,13.549805,-24.169922
24,0.352539,-0.369141,0.904297,3.540039,31.311035,-21.301270
25,0.313965,-0.433105,0.873535,3.540039,37.902832,-16.296387
26,0.297852,-0.442871,0.872070,13.305664,41.076660,-12.695312
27,0.264160,-0.421875,0.908203,42.663574,38.757324,-8.728027
28,0.241211,-0.413574,0.941406,54.870605,35.034180,-7.873535
29,0.193848,-0.431641,0.850586,59.204102,37.353516,-9.277344
30,0.203125,-0.416504,1.033203,55.114746,44.982910,-12.817383
31,0.173828,-0.435547,0.904785,37.902832,49.865723,-9.155273
32,0.099121,-0.475586,0.846680,43.518066,51.452637,-10.009766
33,0.129883,-0.427246,0.935059,57.617188,49.560547,-12.268066
34,0.051270,-0.409668,1.003906,53.161621,19.104004,-23.559570
35,0.031738,-0.360840,0.986816,37.475586,13.916016,-27.770996
36,0.051270,-0.353027,0.953613,22.399902,14.282227,-27.465820
37,0.059082,-0.399902,0.916992,10.559082,10.253906,-23.132324
38,0.051270,-0.399902,0.894043,11.596680,8.850098,-22.827148
39,0.046875,-0.379395,0.895020,10.070801,10.925293,-25.268555
40,0.043457,-0.341309,0.893555,3.662109,17.639160,-29.602051
41,0.041504,-0.301270,0.920410,-5.310059,24.353027,-31.860352
42,-0.011230,-0.334473,0.946289,-18.676758,29.357910,-29.296875
43,-0.017090,-0.358398,0.958984,-20.202637,32.287598,-26.794434
44,-0.005859,-0.385742,0.986328,-18.493652,36.071777,-25.634766
45,0.005371,-0.364746,0.989746,-5.432129,38.085938,-26.611328
46,-0.004883,-0.348145,0.978516,2.502441,39.611816,-26.672363
47,-0.019531,-0.329590,0.997559,9.033203,42.541504,-26.245117
48,-0.042969,-0.342773,1.017578,6.652832,44.982910,-35.156250
49,-0.058105,-0.326172,0.995605,-2.807617,51.147461,-36.987305
50,-0.067383,-0.352539,0.980957,-11.779785,56.091309,-35.461426
51,-0.098145,-0.416016,0.960449,-14.526367,50.964355,-33.142090
52,-0.079102,-0.416016,0.948730,-7.507324,46.447754,-35.461426
53,-0.061523,-0.372070,0.940918,-3.173828,47.058105,-37.780762
54,-0.104980,-0.351074,0.940430,-5.126953,52.429199,-42.541504
55,-0.127930,-0.366699,0.926270,-3.479004,56.030273,-45.898438
56,-0.130371,-0.378418,0.922363,5.554199,58.288574,-48.278809
57,-0.155273,-0.354980,0.900391,18.554688,63.232422,-49.804688
58,-0.255371,-0.295898,1.128906,18.737793,59.448242,-42.907715
59,-0.308594,-0.282227,1.183594,4.577637,44.494629,-40.588379
60,-0.259766,-0.254883,1.099121,-18.371582,28.686523,-43.762207
61,-0.226562,-0.306152,0.944336,-49.377441,35.461426,-50.170898
62,-0.011230,-0.214844,0.895508,-53.527832,45.410156,-40.405273
63,-0.074219,-0.274902,0.911621,-47.912598,53.283691,-33.874512
64,-0.135742,-0.315918,0.938477,-37.597656,53.039551,-33.325195
65,-0.163086,-0.344727,0.955078,-24.841309,44.494629,-32.531738
66,-0.177734,-0.387207,0.941895,-5.981445,23.498535,-30.517578
67,-0.185059,-0.417480,0.934570,3.723145,13.671875,-32.104492
68,-0.149414,-0.369629,0.888672,14.160156,7.202148,-37.780762
69,-0.133789,-0.352051,0.899414,21.240234,5.554199,-37.597656
70,-0.146973,-0.368652,0.906738,19.287109,6.347656,-40.161133
71,-0.151855,-0.366211,0.939941,15.502930,5.615234,-41.015625
72,-0.167969,-0.370605,0.966309,10.925293,1.831055,-40.100098
73,-0.176758,-0.364258,0.980957,-0.854492,-8.972168,-37.536621
74,-0.167480,-0.366211,0.922852,-5.187988,-13.671875,-35.766602
75,-0.147949,-0.359375,0.877441,-7.507324,-15.747070,-33.264160
76,-0.128418,-0.371094,0.822266,-7.751465,-12.878418,-27.587891
77,-0.122070,-0.407227,0.804688,-2.502441,-10.620117,-26.123047
78,-0.109863,-0.422363,0.804199,5.310059,-10.192871,-24.841309
79,-0.114258,-0.442871,0.796875,12.695312,-10.986328,-22.338867
80,-0.122070,-0.429688,0.794922,17.761230,-9.948730,-20.080566
81,-0.133301,-0.398438,0.807129,17.028809,-9.338379,-17.761230
82,-0.148926,-0.356934,0.833984,6.286621,-12.451172,-13.244629
83,-0.145508,-0.360352,0.832031,-0.488281,-15.441895,-10.253906
84,-0.144043,-0.385742,0.808105,-6.469727,-15.869141,-7.446289
85,-0.142090,-0.419922,0.790039,-9.338379,-13.488770,-5.493164
86,-0.145996,-0.456543,0.797363,-8.361816,-9.948730,-4.150391
87,-0.164062,-0.493164,0.852539,-2.807617,-7.873535,-3.601074
88,-0.170410,-0.493164,0.872070,-0.061035,-10.314941,-2.990723
89,-0.166992,-0.480957,0.872559,3.112793,-15.625000,-1.281738
90,-0.161621,-0.462891,0.850098,7.385254,-27.648926,0.976562
91,-0.145996,-0.434570,0.837891,7.141113,-32.165527,0.610352
92,-0.131348,-0.409180,0.812988,4.699707,-33.081055,1.647949
93,-0.145020,-0.415527,0.787109,2.624512,-28.503418,5.981445
94,-0.151367,-0.420410,0.789551,0.976562,-26.000977,7.202148
95,-0.159668,-0.427246,0.804688,-2.807617,-22.949219,8.361816
96,-0.166016,-0.425293,0.821289,-5.859375,-20.141602,8.789062
97,-0.172363,-0.392578,0.837402,-7.324219,-16.784668,10.620117
98,-0.168945,-0.381348,0.860352,-7.995605,-17.333984,11.413574
99,-0.160645,-0.386719,0.856934,-9.399414,-20.202637,12.878418
100,-0.162109,-0.416992,0.835938,-10.681152,-22.888184,13.977051
101,-0.183105,-0.448730,0.822754,-16.784668,-21.179199,7.934570
102,-0.141602,-0.523926,0.811035,-17.639160,-17.822266,4.882812
103,-0.162109,-0.510742,0.714355,-15.808105,-15.930176,-5.187988
104,-0.210938,-0.457520,0.554199,-11.108398,0.610352,-9.399414
105,-0.249023,-0.369141,0.398926,-10.498047,41.564941,-9.216309
106,-0.261719,-0.306641,0.375000,-14.221191,72.326660,-1.159668
107,-0.261719,-0.262695,0.467285,-25.939941,95.275879,7.568359
108,-0.262695,-0.312500,0.580078,-28.259277,103.027344,3.479004
109,-0.347656,-0.056641,0.632324,-10.742188,108.947754,-2.563477
110,-0.396484,-0.003418,0.462402,49.133301,124.206543,-8.178711
111,-0.387695,0.169922,0.340332,124.023438,143.981934,-16.601562
112,-0.029297,0.329590,0.614746,184.692383,137.390137,-6.286621
113,0.106445,0.056152,0.553223,187.194824,79.956055,71.166992
114,-0.041016,-0.091309,0.640625,151.306152,99.853516,86.120605
115,-0.116211,-0.145020,0.673340,129.638672,124.084473,88.684082
116,-0.116699,-0.299805,0.884277,117.065430,117.187500,85.510254
117,-0.235352,-0.320801,0.967285,99.975586,78.613281,72.814941
118,-0.319824,-0.282715,0.887695,80.139160,31.921387,48.339844
119,-0.364258,-0.199707,0.650879,74.462891,-5.554199,16.052246
120,-0.450684,0.035156,0.187012,112.854004,-6.103516,-60.241699
121,-0.567871,0.078613,0.132324,113.830566,49.560547,-110.656738
122,-0.672852,0.058105,0.223145,116.516113,234.436035,-203.002930
123,-0.470215,0.087891,0.418457,160.278320,306.030273,-225.158691
124,-0.380371,0.317871,0.639160,207.153320,332.763672,-227.478027
125,-0.386719,0.657715,1.224609,241.027832,236.022949,-183.654785
126,-0.503418,0.738770,1.323730,212.341309,129.638672,-160.644531
127,-0.744629,0.625000,1.006348,166.687012,50.842285,-143.310547
128,-1.047363,0.515625,0.613770,86.730957,86.059570,-126.464844
129,-0.960449,0.630371,0.760254,28.381348,142.700195,-116.088867
130,-0.759277,0.797363,1.049805,-39.855957,165.527344,-97.656250
131,-0.532715,1.012207,1.206055,-104.736328,152.343750,-56.518555
132,-0.875000,0.769531,0.932617,-190.795898,110.839844,75.439453
133,-1.133789,0.435059,0.674316,-165.832520,112.731934,114.624023
134,-1.247559,0.129395,0.534180,-83.496094,129.577637,134.460449
135,-1.285645,-0.072266,0.566406,45.043945,150.146484,142.089844
136,-1.295898,-0.163574,1.146484,291.259766,158.325195,145.141602
137,-1.233887,-0.191406,1.803711,250.488281,178.649902,115.417480
138,-1.166016,-0.234863,2.100098,-82.336426,148.925781,36.132812
139,-1.068848,-0.025391,1.828613,-191.650391,100.036621,31.738281
140,-1.099609,0.036133,1.341309,-248.413086,58.959961,36.865234
141,-1.098633,0.069336,0.810059,-254.089355,40.588379,49.255371
142,-1.204590,-0.169922,-0.026367,-159.240723,80.688477,46.997070
143,-1.070312,-0.151855,-0.032715,-85.754395,122.436523,34.729004
144,-0.976562,-0.042480,0.142578,-23.742676,154.724121,38.940430
145,-1.137695,-0.105469,0.220703,39.001465,171.691895,51.269531
146,-1.261230,-0.145020,0.428223,86.730957,205.871582,38.818359
147,-1.406250,-0.052734,0.493164,69.458008,232.788086,36.560059
148,-1.383789,-0.154785,0.678223,29.541016,244.873047,26.489258
149,-1.386230,-0.075684,0.801758,12.451172,248.718262,18.981934
150,-1.397461,0.045898,1.065918,-1.831055,196.166992,23.559570
151,-1.318359,0.080566,1.211426,-45.898438,155.639648,26.245117
152,-1.271484,0.102539,1.020020,-98.266602,110.290527,34.484863
153,-1.223145,0.095215,0.337402,-115.356445,92.468262,53.710938
154,-1.267578,0.014160,0.340820,-96.923828,98.632812,59.143066
155,-1.302734,-0.094238,0.373535,-82.946777,97.717285,59.143066
156,-1.157715,-0.183594,0.298340,-43.762207,78.552246,42.663574
157,-1.094727,-0.157715,0.287109,-24.719238,76.904297,34.912109
158,-1.079590,-0.137695,0.271973,-8.239746,75.927734,28.991699
159,-1.137695,-0.093750,0.263184,7.751465,72.509766,22.766113
160,-1.329590,0.058105,0.210449,23.071289,65.673828,14.404297
161,-1.359375,0.119141,0.198730,21.362305,66.345215,13.793945
162,-1.284668,0.197754,0.277344,17.822266,76.782227,15.380859
163,-1.095215,0.312012,0.523438,32.836914,57.861328,25.573730
164,-0.999512,0.201660,0.326660,25.146484,41.259766,34.912109
165,-0.870605,0.220215,0.300781,25.756836,39.489746,44.006348
166,-0.913574,0.145020,0.370117,25.268555,34.790039,53.771973
167,-0.972656,0.051270,0.437988,12.878418,22.094727,57.495117
168,-1.018066,-0.021973,0.309570,-14.099121,-16.662598,55.541992
169,-0.996582,-0.013184,0.178711,-24.414062,-25.695801,54.931641
170,-0.939941,-0.015625,0.136230,-32.409668,-26.672363,56.579590
171,-0.839355,-0.050293,0.251465,-42.541504,-33.996582,59.570312
172,-1.012695,-0.155762,0.296387,-53.710938,-47.058105,55.725098
173,-1.060547,-0.192383,0.294922,-69.580078,-54.443359,43.457031
174,-0.927246,-0.190430,0.327148,-90.576172,-70.739746,14.343262
175,-0.891113,-0.142090,0.259277,-91.613770,-78.308105,2.502441
176,-0.881836,-0.062500,0.072754,-84.533691,-74.951172,-5.065918
177,-0.852051,0.003418,-0.057617,-57.312012,-65.856934,-7.324219
178,-0.831543,0.046875,-0.054688,0.244141,-44.555664,-10.070801
179,-0.801270,0.085449,0.023926,7.934570,-36.621094,-8.911133
180,-0.777344,0.081055,0.087402,0.122070,-32.592773,-4.150391
181,-0.752930,0.037598,0.100586,-14.831543,-29.174805,0.671387
182,-0.699707,-0.080566,0.071777,-46.203613,-16.357422,3.356934
183,-0.703125,-0.121582,0.091797,-56.945801,-6.225586,2.929688
184,-0.728516,-0.174805,0.102539,-62.622070,2.990723,3.173828
185,-0.766113,-0.207031,0.108887,-63.476562,16.479492,-1.525879
186,-0.808105,-0.208496,0.248047,-53.039551,33.508301,-14.831543
187,-0.819336,-0.188965,0.349121,-56.884766,34.545898,-23.925781
188,-0.837891,-0.141113,0.428223,-67.749023,33.874512,-27.893066
189,-0.886719,-0.105957,0.578613,-97.656250,18.432617,-19.470215
190,-0.923340,-0.106934,0.613281,-113.159180,3.173828,-15.075684
191,-0.930176,-0.086914,0.614746,-132.690430,-14.038086,-13.977051
192,-0.870605,-0.032715,0.515625,-150.817871,-25.329590,-10.620117
193,-0.837891,-0.103027,0.292480,-155.273438,-19.897461,4.089355
194,-0.865234,-0.181641,0.262695,-146.484375,-7.690430,2.624512
195,-0.901855,-0.217285,0.277832,-135.864258,5.493164,-5.187988
196,-1.021973,-0.194824,0.409180,-126.953125,32.531738,-25.756836
197,-1.045410,-0.156738,0.478516,-122.253418,40.161133,-32.043457
198,-1.041504,-0.131348,0.527344,-114.746094,43.518066,-35.278320
199,-1.068359,-0.114746,0.572754,-97.473145,50.109863,-38.330078
200,-1.122559,-0.092773,0.723145,-93.505859,50.292969,-42.297363
201,-1.155273,-0.061523,0.872070,-98.815918,43.762207,-46.203613
202,-1.275879,-0.061035,1.062012,-150.512695,17.822266,-59.020996
203,-1.314941,-0.009766,1.014648,-166.870117,1.342773,-62.683105
204,-1.315918,0.033203,0.890137,-165.588379,-11.047363,-62.805176
205,-1.340332,0.081055,0.762695,-144.287109,-5.371094,-55.175781
206,-1.381836,0.062012,0.843262,-136.047363,-1.037598,-49.987793
207,-1.398438,0.051758,0.914551,-138.732910,0.000000,-47.546387
208,-1.313965,0.041016,0.974609,-158.508301,-4.150391,-37.231445
209,-1.257812,-0.022949,0.996582,-167.907715,-10.864258,-29.235840
210,-1.238281,-0.141113,0.963379,-179.260254,-18.127441,-26.916504
211,-1.230957,-0.234375,0.914551,-188.781738,-25.939941,-34.973145
212,-1.226074,-0.274902,0.764160,-190.673828,-40.405273,-64.025879
213,-1.228516,-0.255859,0.681152,-178.527832,-45.532227,-77.819824
214,-1.231445,-0.223633,0.620117,-163.146973,-45.959473,-90.148926
215,-1.255859,-0.154785,0.628418,-141.052246,-42.480469,-111.206055
216,-1.247559,-0.096680,0.623535,-133.972168,-41.320801,-119.018555
217,-1.234375,-0.044922,0.621582,-126.464844,-40.283203,-123.107910
218,-1.166016,0.050781,0.587402,-112.182617,-33.569336,-120.544434
219,-1.120605,0.079590,0.579102,-100.463867,-26.611328,-113.220215
220,-1.082520,0.064453,0.614746,-88.745117,-23.132324,-105.895996
221,-1.044922,0.049805,0.642578,-81.481934,-21.057129,-101.135254
222,-0.967773,0.015137,0.674805,-75.134277,-21.240234,-94.238281
223,-0.943359,-0.021973,0.680176,-74.707031,-23.071289,-94.055176
224,-0.954590,-0.040527,0.688477,-77.087402,-25.512695,-97.839355
225,-0.959961,-0.038086,0.742188,-95.764160,-38.085938,-108.764648
226,-0.958008,-0.009766,0.729492,-112.792969,-45.837402,-115.661621
227,-0.944824,0.034180,0.678711,-129.455566,-51.696777,-120.788574
228,-0.934570,0.086914,0.572754,-142.944336,-53.344727,-121.520996
229,-0.935059,0.085938,0.539062,-140.869141,-50.415039,-120.727539
230,-0.952637,0.086426,0.509766,-131.591797,-47.668457,-119.079590
231,-0.947754,0.095703,0.478027,-116.577148,-45.349121,-116.943359
232,-0.919434,0.105957,0.456543,-98.144531,-43.762207,-113.281250
233,-0.855469,0.108398,0.501465,-70.190430,-45.654297,-107.910156
234,-0.843750,0.122070,0.522461,-71.838379,-47.302246,-107.421875
235,-0.826660,0.154297,0.505859,-76.843262,-47.363281,-104.309082
236,-0.838867,0.166504,0.478516,-79.162598,-46.081543,-98.327637
237,-0.816406,0.167480,0.476074,-76.965332,-43.762207,-85.205078
238,-0.803711,0.203125,0.453613,-73.974609,-43.029785,-76.354980
239,-0.834961,0.226562,0.407227,-69.885254,-40.710449,-63.354492
240,-0.914062,0.215332,0.406738,-69.519043,-35.278320,-40.344238
241,-0.903809,0.262207,0.401855,-74.890137,-36.071777,-26.489258
242,-0.917969,0.276855,0.405273,-81.237793,-38.269043,-8.728027
243,-0.955078,0.237305,0.416992,-94.543457,-55.175781,29.174805
244,-0.998047,0.163086,0.359375,-97.045898,-66.589355,47.363281
245,-1.027832,0.088379,0.256836,-96.435547,-74.096680,59.997559
246,-1.015625,0.029785,0.145020,-90.698242,-75.256348,67.932129
247,-0.915039,-0.043945,0.014648,-62.927246,-65.734863,79.284668
248,-0.871582,-0.064453,-0.064453,-39.672852,-53.466797,85.693359
249,-0.912598,-0.098145,-0.061523,-12.634277,-38.146973,91.857910
250,-1.000488,-0.159180,0.129395,13.183594,-23.498535,90.576172
251,-0.994629,-0.107910,0.187500,9.155273,-25.329590,88.867188
252,-0.984375,-0.057617,0.171875,4.333496,-28.869629,92.712402
253,-1.000977,-0.050781,0.120605,9.094238,-31.311035,101.623535
254,-1.053223,-0.088379,0.046387,42.541504,-28.198242,116.455078
255,-1.057129,-0.083008,0.040039,63.110352,-20.935059,123.596191
256,-1.063965,-0.076172,0.065918,83.251953,-11.779785,131.896973
257,-1.045898,-0.077148,0.147949,114.196777,8.117676,151.245117
258,-1.056152,-0.090820,0.286133,119.323730,13.549805,158.935547
259,-1.100586,-0.094727,0.438965,110.900879,9.887695,165.771484
260,-1.169434,-0.081055,0.536621,89.477539,-3.784180,173.828125
261,-1.218750,-0.104004,0.428223,41.503906,-37.048340,196.838379
262,-1.211426,-0.159668,0.309570,28.076172,-44.311523,206.665039
263,-1.218750,-0.221680,0.231445,24.963379,-44.128418,213.684082
264,-1.166504,-0.320312,0.259766,23.010254,-38.146973,216.552734
265,-1.103027,-0.335449,0.276367,20.751953,-36.132812,216.186523
266,-1.111816,-0.405762,0.179688,18.371582,-24.414062,209.716797
267,-1.093750,-0.420410,0.157715,22.277832,-3.906250,202.148438
268,-1.121094,-0.383301,0.178223,31.860352,19.592285,192.993164
269,-1.195312,-0.307617,0.287598,48.095703,36.987305,187.927246
270,-1.351074,-0.292480,0.704590,49.377441,30.639648,197.631836
271,-1.350098,-0.341797,0.772461,24.047852,9.094238,205.261230
272,-1.320801,-0.420898,0.706055,-5.554199,-14.648438,211.181641
273,-1.313477,-0.562012,0.549805,-52.551270,-49.438477,201.538086
274,-1.208984,-0.561523,0.465820,-64.453125,-61.462402,191.040039
275,-1.137695,-0.572266,0.323730,-65.246582,-65.002441,184.387207
276,-1.069824,-0.624512,0.062988,-20.935059,-39.550781,166.870117
277,-1.048828,-0.628418,0.038574,17.333984,-19.592285,151.489258
278,-1.018066,-0.589844,0.091309,49.072266,2.502441,132.934570
279,-1.000000,-0.411621,0.332031,75.561523,37.902832,105.224609
280,-1.025391,-0.348633,0.448730,70.251465,43.945312,97.229004
281,-1.042480,-0.300781,0.572266,52.795410,43.212891,92.529297
282,-1.076172,-0.290527,0.671875,-11.230469,29.174805,81.176758
283,-1.083984,-0.283691,0.638672,-43.884277,22.155762,72.998047
284,-1.098145,-0.280762,0.589355,-71.411133,19.165039,64.453125
285,-1.103516,-0.274414,0.492676,-87.402344,21.667480,56.579590
286,-1.112305,-0.254395,0.245117,-59.448242,41.992188,48.034668
287,-1.145020,-0.195801,0.229004,-17.517090,62.255859,49.987793
288,-1.277344,-0.187988,0.299805,29.418945,81.115723,57.373047
289,-1.466797,-0.169922,0.849609,65.307617,103.149414,30.639648
290,-1.437988,-0.142090,1.236328,22.338867,91.247559,10.864258
291,-1.292969,-0.105469,1.427734,-46.386719,62.683105,-2.197266
292,-1.165527,-0.098145,1.484375,-113.464355,19.592285,-5.432129
293,-0.932129,-0.167969,0.692871,-178.955078,-33.386230,-10.681152
294,-0.897949,-0.186523,0.486328,-155.578613,-40.222168,-12.939453
295,-0.977539,-0.207520,0.229492,-118.347168,-22.949219,-16.906738
296,-1.151855,-0.070312,0.162109,22.460938,52.917480,-33.081055
297,-1.151367,0.087891,0.741211,73.181152,69.519043,-42.175293
298,-1.079102,0.280273,0.975586,74.829102,56.457520,-43.762207
299,-1.151367,0.370605,0.893066,73.791504,36.865234,-37.414551
300,-1.217285,0.321777,0.885254,38.085938,20.080566,-45.959473
301,-1.106445,0.323730,0.921387,33.203125,27.954102,-59.875488
302,-1.067871,0.370117,1.160156,-23.193359,42.602539,-83.007812
303,-1.154785,0.357910,1.306152,-182.434082,49.621582,-125.732422
304,-1.111328,0.375488,1.117188,-209.716797,29.968262,-150.268555
305,-1.035156,0.428711,0.954102,-209.167480,23.864746,-164.855957
306,-0.923828,0.465332,1.264648,-219.177246,31.738281,-167.114258
307,-0.968262,0.392578,1.405273,-228.942871,8.911133,-167.236328
308,-1.000977,0.394531,1.371094,-227.905273,-21.789551,-174.865723
309,-0.985840,0.602051,1.031250,-167.846680,-66.528320,-176.757812
310,-1.080078,0.581055,0.978027,-104.858398,-79.406738,-169.860840
311,-1.110352,0.555664,1.054199,-45.837402,-96.252441,-165.710449
312,-1.068359,0.595215,1.091309,21.606445,-140.319824,-151.550293
313,-1.072754,0.590820,1.074707,28.198242,-151.123047,-142.028809
314,-1.093262,0.539062,1.128906,12.634277,-150.695801,-135.864258
315,-1.129883,0.453613,1.269043,-20.629883,-151.550293,-133.728027
316,-1.219238,0.407715,1.345703,-61.523438,-164.428711,-136.718750
317,-1.133789,0.489258,1.163086,-110.290527,-187.622070,-143.859863
318,-1.085938,0.501465,1.028320,-114.440918,-192.138672,-140.258789
319,-1.084473,0.472656,0.895508,-107.666016,-190.795898,-136.718750
320,-1.053223,0.471680,0.742676,-78.552246,-179.199219,-134.277344
321,-1.029785,0.476074,0.662109,-59.570312,-171.386719,-130.981445
322,-1.043945,0.473633,0.679688,-47.485352,-164.001465,-128.845215
323,-0.893555,0.515625,0.542969,-62.255859,-146.606445,-121.826172
324,-0.874023,0.526367,0.423340,-77.575684,-127.929688,-118.225098
325,-0.833008,0.534668,0.345703,-87.219238,-103.637695,-111.389160
326,-0.834473,0.522461,0.337402,-93.078613,-81.848145,-100.097656
327,-0.819336,0.620605,0.544922,-130.310059,-66.955566,-67.504883
328,-0.843750,0.598145,0.416504,-158.752441,-69.274902,-45.349121
329,-0.865234,0.527832,0.231934,-164.245605,-67.260742,-25.695801
330,-0.874512,0.419922,0.051758,-155.151367,-59.509277,-13.122559
331,-0.815918,0.374512,-0.184082,-107.971191,-25.573730,-6.958008
332,-0.745117,0.399902,-0.225098,-76.660156,-8.728027,0.305176
333,-0.685547,0.398926,-0.214355,-42.724609,6.896973,11.291504
334,-0.663086,0.377930,-0.142090,-15.441895,18.798828,22.888184
335,-0.646973,0.333496,-0.009277,-8.972168,40.222168,42.297363
336,-0.625488,0.336914,0.042969,-17.272949,49.865723,54.626465
337,-0.675293,0.313477,0.107910,-35.400391,61.584473,77.941895
338,-0.704102,0.325195,0.126465,-47.363281,64.453125,89.538574
339,-0.742188,0.332031,0.084961,-60.546875,67.504883,101.135254
340,-0.780762,0.332031,0.007812,-63.842773,73.242188,113.098145
341,-0.828613,0.301270,-0.013184,-55.114746,77.087402,124.328613
342,-0.847168,0.253906,0.041504,-29.357910,77.209473,140.747070
343,-0.865723,0.205566,0.065918,-18.615723,75.012207,147.949219
344,-0.886719,0.148926,0.082031,7.385254,68.420410,152.099609
345,-0.890137,0.145020,0.041992,19.653320,71.044922,151.367188
346,-0.907227,0.181641,0.046875,35.644531,78.369141,151.489258
347,-0.927734,0.247559,0.139648,50.476074,83.374023,155.944824
348,-1.005371,0.286621,0.292969,61.584473,77.575684,179.077148
349,-1.049316,0.195801,0.291504,60.913086,72.692871,188.659668
350,-1.075684,0.080566,0.236328,58.471680,73.669434,191.467285
351,-1.120605,-0.009766,0.162109,65.429688,81.237793,186.401367
352,-1.215820,-0.019531,0.188477,112.731934,101.013184,166.503906
353,-1.237793,0.032227,0.289062,140.686035,109.252930,158.996582
354,-1.305664,0.167969,0.585938,182.861328,102.722168,153.259277
355,-1.287109,0.259766,0.727051,182.373047,91.186523,157.226562
356,-1.316406,0.276367,0.814453,162.231445,80.200195,164.733887
357,-1.378906,0.249023,0.844727,106.018066,56.823730,178.955078
358,-1.381836,0.193848,0.681152,92.590332,47.180176,184.936523
359,-1.386719,0.098145,0.502930,96.496582,47.546387,187.377930
360,-1.395996,0.012695,0.430176,126.464844,60.913086,175.598145
361,-1.371582,-0.078613,0.536133,133.666992,62.866211,167.053223
362,-1.361328,-0.121582,0.516113,127.929688,65.673828,151.855469
363,-1.375000,-0.066406,0.527344,113.830566,76.049805,137.695312
364,-1.483398,0.060547,0.661621,74.829102,88.623047,126.159668
365,-1.507812,0.065430,0.703125,62.927246,84.960938,127.868652
366,-1.497070,0.057129,0.682129,51.879883,78.552246,127.868652
367,-1.463867,-0.011719,0.624023,33.752441,75.744629,129.272461
368,-1.499023,-0.088867,0.626953,32.714844,72.448730,126.098633
369,-1.530273,-0.149414,0.626953,35.522461,65.551758,119.750977
370,-1.543945,-0.189941,0.623535,38.696289,58.593750,110.839844
371,-1.521484,-0.258301,0.656738,39.001465,50.048828,87.524414
372,-1.516602,-0.256348,0.724121,35.766602,45.593262,74.218750
373,-1.501465,-0.233398,0.787598,26.855469,36.987305,60.668945
374,-1.447266,-0.144531,0.775391,-5.737305,22.033691,40.832520
375,-1.408691,-0.129395,0.738770,-22.399902,18.981934,34.057617
376,-1.371094,-0.169922,0.704102,-32.470703,18.005371,27.770996
377,-1.231934,-0.205566,0.736816,-50.537109,4.699707,10.498047
378,-1.168945,-0.238770,0.673828,-61.279297,-4.699707,1.220703
379,-1.128418,-0.258789,0.611328,-68.969727,-11.230469,-10.192871
380,-1.096680,-0.227051,0.554688,-89.050293,-15.380859,-39.123535
381,-1.089844,-0.182129,0.524414,-95.336914,-14.465332,-53.161621
382,-1.093750,-0.134766,0.523438,-94.482422,-14.831543,-65.673828
383,-1.129883,-0.057129,0.552246,-91.125488,-20.202637,-85.876465
384,-1.160156,-0.024902,0.567871,-96.679688,-21.606445,-95.581055
385,-1.189453,0.011719,0.561523,-104.858398,-22.888184,-104.919434
386,-1.221680,0.040527,0.560547,-111.267090,-22.583008,-114.379883
387,-1.293457,0.117676,0.513184,-119.384766,-15.380859,-133.361816
388,-1.308594,0.122070,0.526367,-117.309570,-9.094238,-141.174316
389,-1.312500,0.134277,0.562012,-114.257812,-6.591797,-149.414062
390,-1.313965,0.165039,0.640137,-114.562988,-9.704590,-154.663086
391,-1.290527,0.186523,0.662598,-121.948242,-33.325195,-162.048340
392,-1.252441,0.235840,0.595215,-117.858887,-45.837402,-165.222168
393,-1.201172,0.332520,0.465820,-114.379883,-48.889160,-166.748047
394,-1.150879,0.336426,0.469238,-100.708008,-36.926270,-158.569336
395,-1.145996,0.289551,0.484863,-89.660645,-39.489746,-156.799316
396,-1.173828,0.277832,0.472656,-74.951172,-47.851562,-155.883789
397,-1.200195,0.272949,0.404297,-58.471680,-56.762695,-154.663086
398,-1.201660,0.244141,0.287598,-25.878906,-60.791016,-157.043457
399,-1.213867,0.236328,0.291504,-12.573242,-57.922363,-159.851074
400,-1.221191,0.234375,0.345703,-7.324219,-55.053711,-164.123535
401,-1.199219,0.346191,0.395020,-23.803711,-54.260254,-167.297363
402,-1.187988,0.380371,0.405273,-34.362793,-53.833008,-163.146973
403,-1.171875,0.382324,0.397949,-44.494629,-53.771973,-158.081055
404,-1.153809,0.375977,0.350586,-50.537109,-52.978516,-153.198242
405,-1.127930,0.368652,0.253418,-49.987793,-42.236328,-149.230957
406,-1.148926,0.403809,0.231445,-48.645020,-32.348633,-147.705078
407,-1.142090,0.463379,0.251465,-47.058105,-24.230957,-143.554688
408,-1.074707,0.520996,0.314453,-57.434082,-13.122559,-125.366211
409,-1.034180,0.512695,0.371094,-70.068359,-12.573242,-114.624023
410,-1.002441,0.522949,0.369629,-87.585449,-15.563965,-104.064941
411,-0.983887,0.540527,0.260742,-109.069824,-20.446777,-81.420898
412,-0.963867,0.560059,0.223633,-108.703613,-20.629883,-70.068359
413,-0.923340,0.581055,0.218262,-101.806641,-21.850586,-58.227539
414,-0.838867,0.597168,0.162109,-74.218750,-29.296875,-30.578613
415,-0.858887,0.610352,0.151367,-58.105469,-34.301758,-17.089844
416,-0.906738,0.652344,0.166504,-45.471191,-43.334961,-1.770020
417,-0.909668,0.623047,0.071777,-32.043457,-50.354004,15.502930
418,-0.913574,0.554199,-0.064941,8.361816,-40.893555,33.386230
419,-0.851074,0.503418,-0.261230,37.353516,-25.695801,41.564941
420,-0.765625,0.478516,-0.231445,63.720703,-7.751465,50.903320
421,-0.706055,0.412598,-0.150879,79.589844,11.474609,60.119629
422,-0.737793,0.248535,0.129395,74.768066,46.569824,70.739746
423,-0.753906,0.179688,0.238281,49.865723,53.894043,73.059082
424,-0.783203,0.143555,0.223633,24.597168,58.044434,72.448730
425,-0.828125,0.237305,0.253418,-2.380371,61.340332,79.589844
426,-0.838379,0.280762,0.276367,-9.338379,58.471680,89.172363
427,-0.873535,0.281738,0.283203,-7.873535,55.175781,98.449707
428,-0.936035,0.270020,0.239746,20.690918,45.837402,112.060547
429,-0.925293,0.214844,0.201172,61.157227,44.433594,124.267578
430,-0.923340,0.200684,0.233887,77.392578,47.363281,128.601074
431,-0.902344,0.178711,0.282227,87.585449,51.879883,132.934570
432,-0.880371,0.120605,0.538574,72.631836,53.771973,143.676758
433,-0.857422,0.052734,0.604980,48.156738,42.907715,150.939941
434,-0.886230,-0.048828,0.555664,25.817871,28.747559,154.907227
435,-1.007812,-0.206055,0.258789,35.339355,3.784180,154.235840
436,-1.005371,-0.277344,0.148438,70.800781,1.037598,149.658203
437,-0.973145,-0.316895,0.161621,110.351562,3.967285,139.160156
438,-0.958496,-0.290527,0.237793,137.817383,8.972168,124.145508
439,-1.029297,-0.178223,0.355469,158.020020,26.733398,93.078613
440,-1.043945,-0.090332,0.510742,153.564453,33.020020,82.885742
441,-1.054688,0.036621,0.708496,109.497070,21.484375,79.711914
442,-1.048340,0.121582,0.656738,75.622559,16.845703,83.862305
443,-1.039062,0.167480,0.600098,43.029785,18.188477,95.153809
444,-1.083984,0.058105,0.409668,9.826660,17.517090,119.873047
445,-1.121094,-0.048340,0.310059,15.319824,21.667480,125.427246
446,-1.147461,-0.137695,0.260254,28.503418,30.822754,122.985840
447,-1.200195,-0.164062,0.378906,46.813965,51.086426,105.712891
448,-1.224609,-0.141113,0.509277,40.832520,57.189941,101.135254
449,-1.269531,-0.156250,0.655762,27.038574,52.856445,99.914551
450,-1.315430,-0.170410,0.730957,9.155273,38.757324,97.534180
451,-1.446289,-0.295410,0.629883,4.760742,-1.953125,95.031738
452,-1.416016,-0.321777,0.541504,14.221191,-5.615234,83.740234
453,-1.407715,-0.352051,0.482422,33.630371,-10.742188,69.885254
454,-1.417969,-0.339355,0.413086,57.434082,-9.399414,51.208496
455,-1.474121,-0.192871,0.508301,101.135254,1.953125,21.728516
456,-1.502930,-0.089844,0.624023,104.248047,1.831055,12.817383
457,-1.503906,0.008789,0.724121,91.918945,0.732422,10.253906
458,-1.499512,0.038574,0.780762,68.664551,-2.380371,11.474609
459,-1.466309,-0.053223,0.858398,-5.737305,-13.427734,13.854980
460,-1.423340,-0.111816,0.770020,-43.273926,-22.155762,8.361816
461,-1.337402,-0.145508,0.591797,-68.176270,-27.099609,0.061035
462,-1.226074,-0.150391,0.456543,-80.322266,-23.864746,-9.582520
463,-1.063965,-0.172852,0.319824,-85.937500,-3.295898,-29.113770
464,-1.030273,-0.146484,0.325195,-89.843750,11.413574,-41.381836
465,-1.015137,-0.157227,0.332520,-99.975586,27.343750,-54.687500
466,-0.977539,-0.197754,0.328125,-102.722168,42.175293,-71.044922
467,-1.025879,-0.182129,0.463379,-66.528320,64.086914,-124.572754
468,-1.072266,0.119141,0.694336,-49.682617,66.223145,-146.789551
469,-1.181152,0.423828,1.034668,-59.631348,51.879883,-147.155762
470,-1.182129,0.645996,1.187500,-125.488281,-21.728516,-104.492188
471,-1.137207,0.530762,0.957520,-143.005371,-55.358887,-81.848145
472,-1.085449,0.360840,0.654297,-138.793945,-75.134277,-71.594238
473,-0.922852,0.230469,0.208984,-85.693359,-53.161621,-75.500488
474,-0.951660,0.168457,0.272461,-64.086914,-27.648926,-78.002930
475,-0.972656,0.095215,0.430664,-54.443359,-13.244629,-83.923340
476,-0.977051,0.016602,0.578125,-61.279297,-16.418457,-99.182129
477,-0.962402,0.034180,0.546875,-72.448730,-19.531250,-108.581543
478,-0.952637,0.040527,0.507324,-80.566406,-18.920898,-116.516113
479,-1.005371,0.108887,0.562988,-86.303711,-27.954102,-130.920410
480,-1.048828,0.224609,0.576172,-85.632324,-43.640137,-132.507324
481,-1.066406,0.376465,0.471680,-83.435059,-61.889648,-124.694824
482,-1.087402,0.386719,0.151367,-66.833496,-67.260742,-94.787598
483,-1.071777,0.303711,0.111328,-65.063477,-51.940918,-85.083008
484,-1.064453,0.205078,0.160156,-72.937012,-33.813477,-82.153320
485,-1.052734,0.139648,0.230469,-88.562012,-19.042969,-85.083008
486,-1.033691,0.116211,0.258301,-117.187500,0.671387,-95.825195
487,-0.981934,0.125488,0.294434,-123.474121,5.065918,-100.952148
488,-0.964844,0.160645,0.276855,-124.511719,9.277344,-105.041504
489,-0.980957,0.219727,0.284668,-120.910645,10.864258,-105.041504
490,-0.997070,0.279785,0.214844,-101.318359,8.300781,-97.229004
491,-0.962402,0.283203,0.146973,-84.899902,10.131836,-91.247559
492,-0.923828,0.261230,0.145020,-67.016602,15.563965,-86.486816
493,-0.902832,0.255859,0.205078,-48.767090,24.414062,-81.542969
494,-0.919922,0.254395,0.233398,-40.954590,25.695801,-78.918457
495,-0.971191,0.259277,0.299805,-36.132812,21.972656,-77.026367
496,-1.063477,0.347168,0.287109,-43.212891,9.155273,-71.655273
497,-1.128906,0.402344,0.275391,-45.410156,2.563477,-65.307617
498,-1.136719,0.468262,0.241211,-45.227051,-8.056641,-54.077148
499,-1.046387,0.516113,0.076660,-40.222168,-16.174316,-26.611328
500,-0.997559,0.524902,0.009277,-31.799316,-8.544922,-13.671875
501,-0.939453,0.533203,-0.029297,-16.296387,1.586914,1.342773
502,-0.829590,0.481445,0.041992,25.329590,21.118164,33.142090
503,-0.786621,0.405273,0.126465,34.606934,26.611328,48.156738
504,-0.778320,0.280762,0.209961,36.987305,28.503418,60.302734
505,-0.784668,0.122070,0.283691,37.841797,18.249512,70.007324
506,-0.763672,0.123535,0.273926,32.409668,13.244629,73.669434
507,-0.750488,0.139648,0.274902,19.958496,11.108398,78.857422
508,-0.768555,0.183594,0.183594,-9.216309,16.296387,89.050293
509,-0.807617,0.199219,0.132324,-11.962891,20.935059,94.787598
510,-0.838867,0.243164,0.107910,-6.652832,26.855469,101.318359
511,-0.917969,0.259277,0.151367,8.239746,35.644531,119.140625
512,-0.947754,0.232910,0.219238,12.268066,36.437988,129.333496
513,-0.958984,0.197754,0.291016,11.230469,30.883789,139.221191
514,-0.945801,0.141113,0.286133,12.023926,23.681641,147.888184
515,-0.933105,0.057617,0.297852,17.211914,17.639160,153.564453
516,-1.016602,-0.078613,0.280762,39.184570,-1.159668,154.541016
517,-1.054688,-0.098145,0.254883,53.283691,-12.023926,154.174805
518,-1.079590,-0.149414,0.192383,68.359375,-26.672363,155.822754
519,-1.032715,-0.245605,0.042969,87.402344,-15.380859,144.592285
520,-1.030273,-0.296875,0.048828,95.031738,-0.732422,133.117676
521,-1.021484,-0.266602,0.098633,98.083496,14.892578,119.384766
522,-1.034668,-0.211914,0.193848,93.688965,28.198242,109.069824
523,-1.057617,-0.116211,0.405762,66.101074,35.278320,100.708008
524,-1.062500,-0.090332,0.449219,47.546387,28.808594,100.830078
525,-1.084473,-0.085938,0.423828,31.555176,23.681641,102.600098
526,-1.101074,-0.135254,0.356445,11.047363,12.390137,106.445312
527,-1.098633,-0.137695,0.304199,5.859375,10.070801,108.642578
528,-1.095703,-0.211914,0.244629,1.770020,9.826660,113.464355
529,-1.116699,-0.286133,0.209961,1.831055,10.925293,111.816406
530,-1.154785,-0.356934,0.173340,8.361816,14.526367,105.468750
531,-1.187012,-0.376953,0.203125,16.113281,18.432617,96.374512
532,-1.210449,-0.329102,0.329590,17.639160,17.089844,78.552246
533,-1.208496,-0.267578,0.387207,10.314941,13.305664,73.425293
534,-1.203613,-0.236328,0.411621,-0.732422,12.207031,70.068359
535,-1.209961,-0.245117,0.519531,-24.902344,11.840820,64.880371
536,-1.249512,-0.292969,0.498047,-32.104492,5.310059,57.739258
537,-1.315918,-0.329590,0.464844,-31.494141,-0.488281,46.142578
538,-1.375000,-0.315918,0.448242,-16.967773,4.333496,13.732910
539,-1.322754,-0.236816,0.383301,-19.714355,13.916016,-8.361816
540,-1.411133,-0.168457,0.487793,-19.226074,33.142090,-23.254395
541,-1.436523,0.020020,0.727539,-29.663086,37.231445,-37.902832
542,-1.410156,0.051758,0.769531,-38.940430,37.475586,-39.306641
543,-1.447754,0.064941,0.936035,-50.231934,-0.671387,-28.381348
544,-1.262695,0.034668,1.050781,-63.415527,-33.081055,-23.864746
545,-1.176270,-0.060547,0.853027,-74.279785,-50.598145,-21.606445
546,-1.130859,-0.166504,0.675293,-76.843262,-53.649902,-29.357910
547,-1.170898,-0.181152,0.671875,-82.946777,-44.982910,-60.791016
548,-1.200684,-0.121582,0.786621,-86.975098,-43.395996,-74.462891
549,-1.248047,0.028320,0.974121,-95.275879,-51.940918,-83.251953
550,-1.271973,0.351562,1.082031,-113.037109,-88.867188,-68.420410
551,-1.265137,0.318359,1.073730,-107.666016,-102.783203,-56.213379
552,-1.227539,0.226562,1.059082,-100.646973,-110.473633,-56.213379
553,-1.169434,0.088867,1.143555,-98.144531,-100.952148,-81.542969
554,-1.180176,0.054688,1.229980,-100.952148,-96.130371,-101.562500
555,-1.216797,0.083008,1.314453,-99.914551,-98.754883,-119.018555
556,-1.266602,0.141602,1.452637,-103.027344,-106.567383,-133.789062
557,-1.253906,0.251953,1.418457,-128.417969,-134.948730,-152.160645
558,-1.258789,0.354492,1.464844,-124.389648,-145.874023,-163.757324
559,-1.299316,0.642090,1.603027,-112.915039,-190.490723,-163.635254
560,-1.281250,0.681152,1.537109,-111.633301,-213.562012,-154.113770
561,-1.281738,0.579590,1.394043,-99.731445,-232.482910,-144.531250
562,-1.290527,0.500000,1.259766,-76.843262,-249.023438,-141.967773
563,-1.293945,0.469727,0.966797,-19.592285,-275.756836,-138.549805
564,-1.263184,0.526855,0.830566,-2.136230,-274.658203,-134.521484
565,-1.197754,0.608398,0.756836,1.159668,-265.319824,-124.816895
566,-1.063477,0.701660,0.732422,-0.244141,-240.356445,-93.383789
567,-1.022949,0.714844,0.828125,14.770508,-238.098145,-74.707031
568,-0.958984,0.719238,0.880859,34.606934,-240.356445,-53.894043
